<ItemGroupData data:ItemGroupDataSeq="201" ItemGroupOID="SV"> <ItemData ItemOID="SV.STUDYID" Value="CDISCPILOT01"/> <ItemData ItemOID="SV.DOMAIN" Value="SV"/> <ItemData ItemOID="SV.USUBJID" Value="01-701-1153"/> <ItemData ItemOID="SV.VISITNUM" Value="5.1"/> <ItemData ItemOID="SV.VISIT" Value="UNSCHEDULED 5.1"/> <ItemData ItemOID="SV.SVSTDTC" Value="2013-10-19"/> <ItemData ItemOID="SV.SVENDTC" Value="2013-10-19"/> </ItemGroupData>
<ItemGroupData data:ItemGroupDataSeq="202" ItemGroupOID="SV"> <ItemData ItemOID="SV.STUDYID" Value="CDISCPILOT01"/> <ItemData ItemOID="SV.DOMAIN" Value="SV"/> <ItemData ItemOID="SV.USUBJID" Value="01-701-1153"/> <ItemData ItemOID="SV.VISITNUM" Value="6"/> <ItemData ItemOID="SV.VISIT" Value="AMBUL ECG REMOVAL"/> <ItemData ItemOID="SV.VISITDY" Value="30"/> <ItemData ItemOID="SV.SVSTDTC" Value="2013-10-28"/> <ItemData ItemOID="SV.SVENDTC" Value="2013-10-28"/> </ItemGroupData>
<ItemGroupData data:ItemGroupDataSeq="203" ItemGroupOID="SV"> <ItemData ItemOID="SV.STUDYID" Value="CDISCPILOT01"/> <ItemData ItemOID="SV.DOMAIN" Value="SV"/> <ItemData ItemOID="SV.USUBJID" Value="01-701-1153"/> <ItemData ItemOID="SV.VISITNUM" Value="7"/> <ItemData ItemOID="SV.VISIT" Value="WEEK 6"/> <ItemData ItemOID="SV.VISITDY" Value="42"/> <ItemData ItemOID="SV.SVSTDTC" Value="2013-11-04"/> <ItemData ItemOID="SV.SVENDTC" Value="2013-11-04"/> </ItemGroupData>
<ItemGroupData data:ItemGroupDataSeq="204" ItemGroupOID="SV"> <ItemData ItemOID="SV.STUDYID" Value="CDISCPILOT01"/> <ItemData ItemOID="SV.DOMAIN" Value="SV"/> <ItemData ItemOID="SV.USUBJID" Value="01-701-1153"/> <ItemData ItemOID="SV.VISITNUM" Value="8"/> <ItemData ItemOID="SV.VISIT" Value="WEEK 8"/> <ItemData ItemOID="SV.VISITDY" Value="56"/> <ItemData ItemOID="SV.SVSTDTC" Value="2013-11-18"/> <ItemData ItemOID="SV.SVENDTC" Value="2013-11-18"/> </ItemGroupData>
<ItemGroupData data:ItemGroupDataSeq="205" ItemGroupOID="SV"> <ItemData ItemOID="SV.STUDYID" Value="CDISCPILOT01"/> <ItemData ItemOID="SV.DOMAIN" Value="SV"/> <ItemData ItemOID="SV.USUBJID" Value="01-701-1153"/> <ItemData ItemOID="SV.VISITNUM" Value="8.1"/> <ItemData ItemOID="SV.VISIT" Value="WEEK 10 (T)"/> <ItemData ItemOID="SV.VISITDY" Value="70"/> <ItemData ItemOID="SV.SVSTDTC" Value="2013-12-02"/> <ItemData ItemOID="SV.SVENDTC" Value="2013-12-02"/> </ItemGroupData>
<ItemGroupData data:ItemGroupDataSeq="206" ItemGroupOID="SV"> <ItemData ItemOID="SV.STUDYID" Value="CDISCPILOT01"/> <ItemData ItemOID="SV.DOMAIN" Value="SV"/> <ItemData ItemOID="SV.USUBJID" Value="01-701-1153"/> <ItemData ItemOID="SV.VISITNUM" Value="9"/> <ItemData ItemOID="SV.VISIT" Value="WEEK 12"/> <ItemData ItemOID="SV.VISITDY" Value="84"/> <ItemData ItemOID="SV.SVSTDTC" Value="2013-12-16"/> <ItemData ItemOID="SV.SVENDTC" Value="2013-12-16"/> </ItemGroupData>
<ItemGroupData data:ItemGroupDataSeq="207" ItemGroupOID="SV"> <ItemData ItemOID="SV.STUDYID" Value="CDISCPILOT01"/> <ItemData ItemOID="SV.DOMAIN" Value="SV"/> <ItemData ItemOID="SV.USUBJID" Value="01-701-1153"/> <ItemData ItemOID="SV.VISITNUM" Value="9.1"/> <ItemData ItemOID="SV.VISIT" Value="WEEK 14 (T)"/> <ItemData ItemOID="SV.VISITDY" Value="98"/> <ItemData ItemOID="SV.SVSTDTC" Value="2013-12-30"/> <ItemData ItemOID="SV.SVENDTC" Value="2013-12-30"/> </ItemGroupData>
<ItemGroupData data:ItemGroupDataSeq="208" ItemGroupOID="SV"> <ItemData ItemOID="SV.STUDYID" Value="CDISCPILOT01"/> <ItemData ItemOID="SV.DOMAIN" Value="SV"/> <ItemData ItemOID="SV.USUBJID" Value="01-701-1153"/> <ItemData ItemOID="SV.VISITNUM" Value="9.2"/> <ItemData ItemOID="SV.VISIT" Value="UNSCHEDULED 9.2"/> <ItemData ItemOID="SV.SVSTDTC" Value="2014-01-08"/> <ItemData ItemOID="SV.SVENDTC" Value="2014-01-08"/> </ItemGroupData>
<ItemGroupData data:ItemGroupDataSeq="209" ItemGroupOID="SV"> <ItemData ItemOID="SV.STUDYID" Value="CDISCPILOT01"/> <ItemData ItemOID="SV.DOMAIN" Value="SV"/> <ItemData ItemOID="SV.USUBJID" Value="01-701-1153"/> <ItemData ItemOID="SV.VISITNUM" Value="9.3"/> <ItemData ItemOID="SV.VISIT" Value="UNSCHEDULED 9.3"/> <ItemData ItemOID="SV.SVSTDTC" Value="2013-12-30"/> <ItemData ItemOID="SV.SVENDTC" Value="2013-12-30"/> </ItemGroupData>
<ItemGroupData data:ItemGroupDataSeq="210" ItemGroupOID="SV"> <ItemData ItemOID="SV.STUDYID" Value="CDISCPILOT01"/> <ItemData ItemOID="SV.DOMAIN" Value="SV"/> <ItemData ItemOID="SV.USUBJID" Value="01-701-1153"/> <ItemData ItemOID="SV.VISITNUM" Value="10"/> <ItemData ItemOID="SV.VISIT" Value="WEEK 16"/> <ItemData ItemOID="SV.VISITDY" Value="112"/> <ItemData ItemOID="SV.SVSTDTC" Value="2014-01-08"/> <ItemData ItemOID="SV.SVENDTC" Value="2014-01-08"/> </ItemGroupData>
<ItemGroupData data:ItemGroupDataSeq="211" ItemGroupOID="SV"> <ItemData ItemOID="SV.STUDYID" Value="CDISCPILOT01"/> <ItemData ItemOID="SV.DOMAIN" Value="SV"/> <ItemData ItemOID="SV.USUBJID" Value="01-701-1153"/> <ItemData ItemOID="SV.VISITNUM" Value="11"/> <ItemData ItemOID="SV.VISIT" Value="WEEK 20"/> <ItemData ItemOID="SV.VISITDY" Value="140"/> <ItemData ItemOID="SV.SVSTDTC" Value="2014-02-11"/> <ItemData ItemOID="SV.SVENDTC" Value="2014-02-11"/> </ItemGroupData>
<ItemGroupData data:ItemGroupDataSeq="212" ItemGroupOID="SV"> <ItemData ItemOID="SV.STUDYID" Value="CDISCPILOT01"/> <ItemData ItemOID="SV.DOMAIN" Value="SV"/> <ItemData ItemOID="SV.USUBJID" Value="01-701-1153"/> <ItemData ItemOID="SV.VISITNUM" Value="11.1"/> <ItemData ItemOID="SV.VISIT" Value="WEEK 22 (T)"/> <ItemData ItemOID="SV.VISITDY" Value="154"/> <ItemData ItemOID="SV.SVSTDTC" Value="2014-02-25"/> <ItemData ItemOID="SV.SVENDTC" Value="2014-02-25"/> </ItemGroupData>
<ItemGroupData data:ItemGroupDataSeq="213" ItemGroupOID="SV"> <ItemData ItemOID="SV.STUDYID" Value="CDISCPILOT01"/> <ItemData ItemOID="SV.DOMAIN" Value="SV"/> <ItemData ItemOID="SV.USUBJID" Value="01-701-1153"/> <ItemData ItemOID="SV.VISITNUM" Value="12"/> <ItemData ItemOID="SV.VISIT" Value="WEEK 24"/> <ItemData ItemOID="SV.VISITDY" Value="168"/> <ItemData ItemOID="SV.SVSTDTC" Value="2014-03-11"/> <ItemData ItemOID="SV.SVENDTC" Value="2014-03-11"/> </ItemGroupData>
<ItemGroupData data:ItemGroupDataSeq="214" ItemGroupOID="SV"> <ItemData ItemOID="SV.STUDYID" Value="CDISCPILOT01"/> <ItemData ItemOID="SV.DOMAIN" Value="SV"/> <ItemData ItemOID="SV.USUBJID" Value="01-701-1153"/> <ItemData ItemOID="SV.VISITNUM" Value="13"/> <ItemData ItemOID="SV.VISIT" Value="WEEK 26"/> <ItemData ItemOID="SV.VISITDY" Value="182"/> <ItemData ItemOID="SV.SVSTDTC" Value="2014-04-01"/> <ItemData ItemOID="SV.SVENDTC" Value="2014-04-01"/> </ItemGroupData>
<ItemGroupData data:ItemGroupDataSeq="215" ItemGroupOID="SV"> <ItemData ItemOID="SV.STUDYID" Value="CDISCPILOT01"/> <ItemData ItemOID="SV.DOMAIN" Value="SV"/> <ItemData ItemOID="SV.USUBJID" Value="01-701-1162"/> <ItemData ItemOID="SV.VISITNUM" Value="1"/> <ItemData ItemOID="SV.VISIT" Value="SCREENING 1"/> <ItemData ItemOID="SV.VISITDY" Value="-7"/> <ItemData ItemOID="SV.SVSTDTC" Value="2013-04-18"/> <ItemData ItemOID="SV.SVENDTC" Value="2013-04-18"/> </ItemGroupData>
<ItemGroupData data:ItemGroupDataSeq="216" ItemGroupOID="SV"> <ItemData ItemOID="SV.STUDYID" Value="CDISCPILOT01"/> <ItemData ItemOID="SV.DOMAIN" Value="SV"/> <ItemData ItemOID="SV.USUBJID" Value="01-701-1176"/> <ItemData ItemOID="SV.VISITNUM" Value="1"/> <ItemData ItemOID="SV.VISIT" Value="SCREENING 1"/> <ItemData ItemOID="SV.VISITDY" Value="-7"/> <ItemData ItemOID="SV.SVSTDTC" Value="2012-09-30"/> <ItemData ItemOID="SV.SVENDTC" Value="2012-09-30"/> </ItemGroupData>
<ItemGroupData data:ItemGroupDataSeq="217" ItemGroupOID="SV"> <ItemData ItemOID="SV.STUDYID" Value="CDISCPILOT01"/> <ItemData ItemOID="SV.DOMAIN" Value="SV"/> <ItemData ItemOID="SV.USUBJID" Value="01-701-1180"/> <ItemData ItemOID="SV.VISITNUM" Value="1"/> <ItemData ItemOID="SV.VISIT" Value="SCREENING 1"/> <ItemData ItemOID="SV.VISITDY" Value="-7"/> <ItemData ItemOID="SV.SVSTDTC" Value="2013-01-28"/> <ItemData ItemOID="SV.SVENDTC" Value="2013-01-28"/> </ItemGroupData>
<ItemGroupData data:ItemGroupDataSeq="218" ItemGroupOID="SV"> <ItemData ItemOID="SV.STUDYID" Value="CDISCPILOT01"/> <ItemData ItemOID="SV.DOMAIN" Value="SV"/> <ItemData ItemOID="SV.USUBJID" Value="01-701-1180"/> <ItemData ItemOID="SV.VISITNUM" Value="2"/> <ItemData ItemOID="SV.VISIT" Value="SCREENING 2"/> <ItemData ItemOID="SV.VISITDY" Value="-1"/> <ItemData ItemOID="SV.SVSTDTC" Value="2013-02-10"/> <ItemData ItemOID="SV.SVENDTC" Value="2013-02-10"/> </ItemGroupData>
<ItemGroupData data:ItemGroupDataSeq="219" ItemGroupOID="SV"> <ItemData ItemOID="SV.STUDYID" Value="CDISCPILOT01"/> <ItemData ItemOID="SV.DOMAIN" Value="SV"/> <ItemData ItemOID="SV.USUBJID" Value="01-701-1180"/> <ItemData ItemOID="SV.VISITNUM" Value="3"/> <ItemData ItemOID="SV.VISIT" Value="BASELINE"/> <ItemData ItemOID="SV.VISITDY" Value="1"/> <ItemData ItemOID="SV.SVSTDTC" Value="2013-02-12"/> <ItemData ItemOID="SV.SVENDTC" Value="2013-02-12"/> </ItemGroupData>
<ItemGroupData data:ItemGroupDataSeq="220" ItemGroupOID="SV"> <ItemData ItemOID="SV.STUDYID" Value="CDISCPILOT01"/> <ItemData ItemOID="SV.DOMAIN" Value="SV"/> <ItemData ItemOID="SV.USUBJID" Value="01-701-1180"/> <ItemData ItemOID="SV.VISITNUM" Value="3.5"/> <ItemData ItemOID="SV.VISIT" Value="AMBUL ECG PLACEMENT"/> <ItemData ItemOID="SV.VISITDY" Value="13"/> <ItemData ItemOID="SV.SVSTDTC" Value="2013-02-24"/> <ItemData ItemOID="SV.SVENDTC" Value="2013-02-24"/> </ItemGroupData>
<ItemGroupData data:ItemGroupDataSeq="221" ItemGroupOID="SV"> <ItemData ItemOID="SV.STUDYID" Value="CDISCPILOT01"/> <ItemData ItemOID="SV.DOMAIN" Value="SV"/> <ItemData ItemOID="SV.USUBJID" Value="01-701-1180"/> <ItemData ItemOID="SV.VISITNUM" Value="4"/> <ItemData ItemOID="SV.VISIT" Value="WEEK 2"/> <ItemData ItemOID="SV.VISITDY" Value="14"/> <ItemData ItemOID="SV.SVSTDTC" Value="2013-02-25"/> <ItemData ItemOID="SV.SVENDTC" Value="2013-02-25"/> </ItemGroupData>
<ItemGroupData data:ItemGroupDataSeq="222" ItemGroupOID="SV"> <ItemData ItemOID="SV.STUDYID" Value="CDISCPILOT01"/> <ItemData ItemOID="SV.DOMAIN" Value="SV"/> <ItemData ItemOID="SV.USUBJID" Value="01-701-1180"/> <ItemData ItemOID="SV.VISITNUM" Value="5"/> <ItemData ItemOID="SV.VISIT" Value="WEEK 4"/> <ItemData ItemOID="SV.VISITDY" Value="28"/> <ItemData ItemOID="SV.SVSTDTC" Value="2013-03-11"/> <ItemData ItemOID="SV.SVENDTC" Value="2013-03-11"/> </ItemGroupData>
<ItemGroupData data:ItemGroupDataSeq="223" ItemGroupOID="SV"> <ItemData ItemOID="SV.STUDYID" Value="CDISCPILOT01"/> <ItemData ItemOID="SV.DOMAIN" Value="SV"/> <ItemData ItemOID="SV.USUBJID" Value="01-701-1180"/> <ItemData ItemOID="SV.VISITNUM" Value="6"/> <ItemData ItemOID="SV.VISIT" Value="AMBUL ECG REMOVAL"/> <ItemData ItemOID="SV.VISITDY" Value="30"/> <ItemData ItemOID="SV.SVSTDTC" Value="2013-03-13"/> <ItemData ItemOID="SV.SVENDTC" Value="2013-03-13"/> </ItemGroupData>
<ItemGroupData data:ItemGroupDataSeq="224" ItemGroupOID="SV"> <ItemData ItemOID="SV.STUDYID" Value="CDISCPILOT01"/> <ItemData ItemOID="SV.DOMAIN" Value="SV"/> <ItemData ItemOID="SV.USUBJID" Value="01-701-1180"/> <ItemData ItemOID="SV.VISITNUM" Value="7"/> <ItemData ItemOID="SV.VISIT" Value="WEEK 6"/> <ItemData ItemOID="SV.VISITDY" Value="42"/> <ItemData ItemOID="SV.SVSTDTC" Value="2013-03-23"/> <ItemData ItemOID="SV.SVENDTC" Value="2013-03-23"/> </ItemGroupData>
<ItemGroupData data:ItemGroupDataSeq="225" ItemGroupOID="SV"> <ItemData ItemOID="SV.STUDYID" Value="CDISCPILOT01"/> <ItemData ItemOID="SV.DOMAIN" Value="SV"/> <ItemData ItemOID="SV.USUBJID" Value="01-701-1180"/> <ItemData ItemOID="SV.VISITNUM" Value="101"/> <ItemData ItemOID="SV.VISIT" Value="AE FOLLOW-UP"/> <ItemData ItemOID="SV.SVSTDTC" Value="2013-04-07"/> <ItemData ItemOID="SV.SVENDTC" Value="2013-04-07"/> </ItemGroupData>
<ItemGroupData data:ItemGroupDataSeq="226" ItemGroupOID="SV"> <ItemData ItemOID="SV.STUDYID" Value="CDISCPILOT01"/> <ItemData ItemOID="SV.DOMAIN" Value="SV"/> <ItemData ItemOID="SV.USUBJID" Value="01-701-1181"/> <ItemData ItemOID="SV.VISITNUM" Value="1"/> <ItemData ItemOID="SV.VISIT" Value="SCREENING 1"/> <ItemData ItemOID="SV.VISITDY" Value="-7"/> <ItemData ItemOID="SV.SVSTDTC" Value="2013-11-26"/> <ItemData ItemOID="SV.SVENDTC" Value="2013-11-26"/> </ItemGroupData>
<ItemGroupData data:ItemGroupDataSeq="227" ItemGroupOID="SV"> <ItemData ItemOID="SV.STUDYID" Value="CDISCPILOT01"/> <ItemData ItemOID="SV.DOMAIN" Value="SV"/> <ItemData ItemOID="SV.USUBJID" Value="01-701-1181"/> <ItemData ItemOID="SV.VISITNUM" Value="2"/> <ItemData ItemOID="SV.VISIT" Value="SCREENING 2"/> <ItemData ItemOID="SV.VISITDY" Value="-1"/> <ItemData ItemOID="SV.SVSTDTC" Value="2013-12-03"/> <ItemData ItemOID="SV.SVENDTC" Value="2013-12-03"/> </ItemGroupData>
<ItemGroupData data:ItemGroupDataSeq="228" ItemGroupOID="SV"> <ItemData ItemOID="SV.STUDYID" Value="CDISCPILOT01"/> <ItemData ItemOID="SV.DOMAIN" Value="SV"/> <ItemData ItemOID="SV.USUBJID" Value="01-701-1181"/> <ItemData ItemOID="SV.VISITNUM" Value="3"/> <ItemData ItemOID="SV.VISIT" Value="BASELINE"/> <ItemData ItemOID="SV.VISITDY" Value="1"/> <ItemData ItemOID="SV.SVSTDTC" Value="2013-12-05"/> <ItemData ItemOID="SV.SVENDTC" Value="2013-12-05"/> </ItemGroupData>
<ItemGroupData data:ItemGroupDataSeq="229" ItemGroupOID="SV"> <ItemData ItemOID="SV.STUDYID" Value="CDISCPILOT01"/> <ItemData ItemOID="SV.DOMAIN" Value="SV"/> <ItemData ItemOID="SV.USUBJID" Value="01-701-1181"/> <ItemData ItemOID="SV.VISITNUM" Value="4"/> <ItemData ItemOID="SV.VISIT" Value="WEEK 2"/> <ItemData ItemOID="SV.VISITDY" Value="14"/> <ItemData ItemOID="SV.SVSTDTC" Value="2013-12-12"/> <ItemData ItemOID="SV.SVENDTC" Value="2013-12-12"/> </ItemGroupData>
<ItemGroupData data:ItemGroupDataSeq="230" ItemGroupOID="SV"> <ItemData ItemOID="SV.STUDYID" Value="CDISCPILOT01"/> <ItemData ItemOID="SV.DOMAIN" Value="SV"/> <ItemData ItemOID="SV.USUBJID" Value="01-701-1181"/> <ItemData ItemOID="SV.VISITNUM" Value="101"/> <ItemData ItemOID="SV.VISIT" Value="AE FOLLOW-UP"/> <ItemData ItemOID="SV.SVSTDTC" Value="2013-12-20"/> <ItemData ItemOID="SV.SVENDTC" Value="2013-12-20"/> </ItemGroupData>
<ItemGroupData data:ItemGroupDataSeq="231" ItemGroupOID="SV"> <ItemData ItemOID="SV.STUDYID" Value="CDISCPILOT01"/> <ItemData ItemOID="SV.DOMAIN" Value="SV"/> <ItemData ItemOID="SV.USUBJID" Value="01-701-1181"/> <ItemData ItemOID="SV.VISITNUM" Value="201"/> <ItemData ItemOID="SV.VISIT" Value="RETRIEVAL"/> <ItemData ItemOID="SV.VISITDY" Value="168"/> <ItemData ItemOID="SV.SVSTDTC" Value="2014-05-23"/> <ItemData ItemOID="SV.SVENDTC" Value="2014-05-23"/> </ItemGroupData>
<ItemGroupData data:ItemGroupDataSeq="232" ItemGroupOID="SV"> <ItemData ItemOID="SV.STUDYID" Value="CDISCPILOT01"/> <ItemData ItemOID="SV.DOMAIN" Value="SV"/> <ItemData ItemOID="SV.USUBJID" Value="01-701-1188"/> <ItemData ItemOID="SV.VISITNUM" Value="1"/> <ItemData ItemOID="SV.VISIT" Value="SCREENING 1"/> <ItemData ItemOID="SV.VISITDY" Value="-7"/> <ItemData ItemOID="SV.SVSTDTC" Value="2013-02-03"/> <ItemData ItemOID="SV.SVENDTC" Value="2013-02-03"/> </ItemGroupData>
<ItemGroupData data:ItemGroupDataSeq="233" ItemGroupOID="SV"> <ItemData ItemOID="SV.STUDYID" Value="CDISCPILOT01"/> <ItemData ItemOID="SV.DOMAIN" Value="SV"/> <ItemData ItemOID="SV.USUBJID" Value="01-701-1188"/> <ItemData ItemOID="SV.VISITNUM" Value="2"/> <ItemData ItemOID="SV.VISIT" Value="SCREENING 2"/> <ItemData ItemOID="SV.VISITDY" Value="-1"/> <ItemData ItemOID="SV.SVSTDTC" Value="2013-02-10"/> <ItemData ItemOID="SV.SVENDTC" Value="2013-02-10"/> </ItemGroupData>
<ItemGroupData data:ItemGroupDataSeq="234" ItemGroupOID="SV"> <ItemData ItemOID="SV.STUDYID" Value="CDISCPILOT01"/> <ItemData ItemOID="SV.DOMAIN" Value="SV"/> <ItemData ItemOID="SV.USUBJID" Value="01-701-1188"/> <ItemData ItemOID="SV.VISITNUM" Value="3"/> <ItemData ItemOID="SV.VISIT" Value="BASELINE"/> <ItemData ItemOID="SV.VISITDY" Value="1"/> <ItemData ItemOID="SV.SVSTDTC" Value="2013-02-15"/> <ItemData ItemOID="SV.SVENDTC" Value="2013-02-15"/> </ItemGroupData>
<ItemGroupData data:ItemGroupDataSeq="235" ItemGroupOID="SV"> <ItemData ItemOID="SV.STUDYID" Value="CDISCPILOT01"/> <ItemData ItemOID="SV.DOMAIN" Value="SV"/> <ItemData ItemOID="SV.USUBJID" Value="01-701-1188"/> <ItemData ItemOID="SV.VISITNUM" Value="3.5"/> <ItemData ItemOID="SV.VISIT" Value="AMBUL ECG PLACEMENT"/> <ItemData ItemOID="SV.VISITDY" Value="13"/> <ItemData ItemOID="SV.SVSTDTC" Value="2013-03-01"/> <ItemData ItemOID="SV.SVENDTC" Value="2013-03-01"/> </ItemGroupData>
<ItemGroupData data:ItemGroupDataSeq="236" ItemGroupOID="SV"> <ItemData ItemOID="SV.STUDYID" Value="CDISCPILOT01"/> <ItemData ItemOID="SV.DOMAIN" Value="SV"/> <ItemData ItemOID="SV.USUBJID" Value="01-701-1188"/> <ItemData ItemOID="SV.VISITNUM" Value="4"/> <ItemData ItemOID="SV.VISIT" Value="WEEK 2"/> <ItemData ItemOID="SV.VISITDY" Value="14"/> <ItemData ItemOID="SV.SVSTDTC" Value="2013-03-02"/> <ItemData ItemOID="SV.SVENDTC" Value="2013-03-02"/> </ItemGroupData>
<ItemGroupData data:ItemGroupDataSeq="237" ItemGroupOID="SV"> <ItemData ItemOID="SV.STUDYID" Value="CDISCPILOT01"/> <ItemData ItemOID="SV.DOMAIN" Value="SV"/> <ItemData ItemOID="SV.USUBJID" Value="01-701-1188"/> <ItemData ItemOID="SV.VISITNUM" Value="5"/> <ItemData ItemOID="SV.VISIT" Value="WEEK 4"/> <ItemData ItemOID="SV.VISITDY" Value="28"/> <ItemData ItemOID="SV.SVSTDTC" Value="2013-03-16"/> <ItemData ItemOID="SV.SVENDTC" Value="2013-03-16"/> </ItemGroupData>
<ItemGroupData data:ItemGroupDataSeq="238" ItemGroupOID="SV"> <ItemData ItemOID="SV.STUDYID" Value="CDISCPILOT01"/> <ItemData ItemOID="SV.DOMAIN" Value="SV"/> <ItemData ItemOID="SV.USUBJID" Value="01-701-1188"/> <ItemData ItemOID="SV.VISITNUM" Value="6"/> <ItemData ItemOID="SV.VISIT" Value="AMBUL ECG REMOVAL"/> <ItemData ItemOID="SV.VISITDY" Value="30"/> <ItemData ItemOID="SV.SVSTDTC" Value="2013-03-18"/> <ItemData ItemOID="SV.SVENDTC" Value="2013-03-18"/> </ItemGroupData>
<ItemGroupData data:ItemGroupDataSeq="239" ItemGroupOID="SV"> <ItemData ItemOID="SV.STUDYID" Value="CDISCPILOT01"/> <ItemData ItemOID="SV.DOMAIN" Value="SV"/> <ItemData ItemOID="SV.USUBJID" Value="01-701-1188"/> <ItemData ItemOID="SV.VISITNUM" Value="7"/> <ItemData ItemOID="SV.VISIT" Value="WEEK 6"/> <ItemData ItemOID="SV.VISITDY" Value="42"/> <ItemData ItemOID="SV.SVSTDTC" Value="2013-03-25"/> <ItemData ItemOID="SV.SVENDTC" Value="2013-03-25"/> </ItemGroupData>
<ItemGroupData data:ItemGroupDataSeq="240" ItemGroupOID="SV"> <ItemData ItemOID="SV.STUDYID" Value="CDISCPILOT01"/> <ItemData ItemOID="SV.DOMAIN" Value="SV"/> <ItemData ItemOID="SV.USUBJID" Value="01-701-1188"/> <ItemData ItemOID="SV.VISITNUM" Value="101"/> <ItemData ItemOID="SV.VISIT" Value="AE FOLLOW-UP"/> <ItemData ItemOID="SV.SVSTDTC" Value="2013-06-01"/> <ItemData ItemOID="SV.SVENDTC" Value="2013-06-01"/> </ItemGroupData>
<ItemGroupData data:ItemGroupDataSeq="241" ItemGroupOID="SV"> <ItemData ItemOID="SV.STUDYID" Value="CDISCPILOT01"/> <ItemData ItemOID="SV.DOMAIN" Value="SV"/> <ItemData ItemOID="SV.USUBJID" Value="01-701-1188"/> <ItemData ItemOID="SV.VISITNUM" Value="201"/> <ItemData ItemOID="SV.VISIT" Value="RETRIEVAL"/> <ItemData ItemOID="SV.VISITDY" Value="168"/> <ItemData ItemOID="SV.SVSTDTC" Value="2013-08-04"/> <ItemData ItemOID="SV.SVENDTC" Value="2013-08-04"/> </ItemGroupData>
<ItemGroupData data:ItemGroupDataSeq="242" ItemGroupOID="SV"> <ItemData ItemOID="SV.STUDYID" Value="CDISCPILOT01"/> <ItemData ItemOID="SV.DOMAIN" Value="SV"/> <ItemData ItemOID="SV.USUBJID" Value="01-701-1192"/> <ItemData ItemOID="SV.VISITNUM" Value="1"/> <ItemData ItemOID="SV.VISIT" Value="SCREENING 1"/> <ItemData ItemOID="SV.VISITDY" Value="-7"/> <ItemData ItemOID="SV.SVSTDTC" Value="2012-07-08"/> <ItemData ItemOID="SV.SVENDTC" Value="2012-07-08"/> </ItemGroupData>
<ItemGroupData data:ItemGroupDataSeq="243" ItemGroupOID="SV"> <ItemData ItemOID="SV.STUDYID" Value="CDISCPILOT01"/> <ItemData ItemOID="SV.DOMAIN" Value="SV"/> <ItemData ItemOID="SV.USUBJID" Value="01-701-1192"/> <ItemData ItemOID="SV.VISITNUM" Value="2"/> <ItemData ItemOID="SV.VISIT" Value="SCREENING 2"/> <ItemData ItemOID="SV.VISITDY" Value="-1"/> <ItemData ItemOID="SV.SVSTDTC" Value="2012-07-20"/> <ItemData ItemOID="SV.SVENDTC" Value="2012-07-20"/> </ItemGroupData>
<ItemGroupData data:ItemGroupDataSeq="244" ItemGroupOID="SV"> <ItemData ItemOID="SV.STUDYID" Value="CDISCPILOT01"/> <ItemData ItemOID="SV.DOMAIN" Value="SV"/> <ItemData ItemOID="SV.USUBJID" Value="01-701-1192"/> <ItemData ItemOID="SV.VISITNUM" Value="3"/> <ItemData ItemOID="SV.VISIT" Value="BASELINE"/> <ItemData ItemOID="SV.VISITDY" Value="1"/> <ItemData ItemOID="SV.SVSTDTC" Value="2012-07-22"/> <ItemData ItemOID="SV.SVENDTC" Value="2012-07-22"/> </ItemGroupData>
<ItemGroupData data:ItemGroupDataSeq="245" ItemGroupOID="SV"> <ItemData ItemOID="SV.STUDYID" Value="CDISCPILOT01"/> <ItemData ItemOID="SV.DOMAIN" Value="SV"/> <ItemData ItemOID="SV.USUBJID" Value="01-701-1192"/> <ItemData ItemOID="SV.VISITNUM" Value="3.5"/> <ItemData ItemOID="SV.VISIT" Value="AMBUL ECG PLACEMENT"/> <ItemData ItemOID="SV.VISITDY" Value="13"/> <ItemData ItemOID="SV.SVSTDTC" Value="2012-08-04"/> <ItemData ItemOID="SV.SVENDTC" Value="2012-08-04"/> </ItemGroupData>
<ItemGroupData data:ItemGroupDataSeq="246" ItemGroupOID="SV"> <ItemData ItemOID="SV.STUDYID" Value="CDISCPILOT01"/> <ItemData ItemOID="SV.DOMAIN" Value="SV"/> <ItemData ItemOID="SV.USUBJID" Value="01-701-1192"/> <ItemData ItemOID="SV.VISITNUM" Value="4"/> <ItemData ItemOID="SV.VISIT" Value="WEEK 2"/> <ItemData ItemOID="SV.VISITDY" Value="14"/> <ItemData ItemOID="SV.SVSTDTC" Value="2012-08-07"/> <ItemData ItemOID="SV.SVENDTC" Value="2012-08-07"/> </ItemGroupData>
<ItemGroupData data:ItemGroupDataSeq="247" ItemGroupOID="SV"> <ItemData ItemOID="SV.STUDYID" Value="CDISCPILOT01"/> <ItemData ItemOID="SV.DOMAIN" Value="SV"/> <ItemData ItemOID="SV.USUBJID" Value="01-701-1192"/> <ItemData ItemOID="SV.VISITNUM" Value="5"/> <ItemData ItemOID="SV.VISIT" Value="WEEK 4"/> <ItemData ItemOID="SV.VISITDY" Value="28"/> <ItemData ItemOID="SV.SVSTDTC" Value="2012-08-21"/> <ItemData ItemOID="SV.SVENDTC" Value="2012-08-21"/> </ItemGroupData>
<ItemGroupData data:ItemGroupDataSeq="248" ItemGroupOID="SV"> <ItemData ItemOID="SV.STUDYID" Value="CDISCPILOT01"/> <ItemData ItemOID="SV.DOMAIN" Value="SV"/> <ItemData ItemOID="SV.USUBJID" Value="01-701-1192"/> <ItemData ItemOID="SV.VISITNUM" Value="5.1"/> <ItemData ItemOID="SV.VISIT" Value="UNSCHEDULED 5.1"/> <ItemData ItemOID="SV.SVSTDTC" Value="2012-08-21"/> <ItemData ItemOID="SV.SVENDTC" Value="2012-08-21"/> </ItemGroupData>
<ItemGroupData data:ItemGroupDataSeq="249" ItemGroupOID="SV"> <ItemData ItemOID="SV.STUDYID" Value="CDISCPILOT01"/> <ItemData ItemOID="SV.DOMAIN" Value="SV"/> <ItemData ItemOID="SV.USUBJID" Value="01-701-1192"/> <ItemData ItemOID="SV.VISITNUM" Value="6"/> <ItemData ItemOID="SV.VISIT" Value="AMBUL ECG REMOVAL"/> <ItemData ItemOID="SV.VISITDY" Value="30"/> <ItemData ItemOID="SV.SVSTDTC" Value="2012-08-23"/> <ItemData ItemOID="SV.SVENDTC" Value="2012-08-23"/> </ItemGroupData>
<ItemGroupData data:ItemGroupDataSeq="250" ItemGroupOID="SV"> <ItemData ItemOID="SV.STUDYID" Value="CDISCPILOT01"/> <ItemData ItemOID="SV.DOMAIN" Value="SV"/> <ItemData ItemOID="SV.USUBJID" Value="01-701-1192"/> <ItemData ItemOID="SV.VISITNUM" Value="7"/> <ItemData ItemOID="SV.VISIT" Value="WEEK 6"/> <ItemData ItemOID="SV.VISITDY" Value="42"/> <ItemData ItemOID="SV.SVSTDTC" Value="2012-09-04"/> <ItemData ItemOID="SV.SVENDTC" Value="2012-09-04"/> </ItemGroupData>
<ItemGroupData data:ItemGroupDataSeq="251" ItemGroupOID="SV"> <ItemData ItemOID="SV.STUDYID" Value="CDISCPILOT01"/> <ItemData ItemOID="SV.DOMAIN" Value="SV"/> <ItemData ItemOID="SV.USUBJID" Value="01-701-1192"/> <ItemData ItemOID="SV.VISITNUM" Value="8"/> <ItemData ItemOID="SV.VISIT" Value="WEEK 8"/> <ItemData ItemOID="SV.VISITDY" Value="56"/> <ItemData ItemOID="SV.SVSTDTC" Value="2012-09-23"/> <ItemData ItemOID="SV.SVENDTC" Value="2012-09-23"/> </ItemGroupData>
<ItemGroupData data:ItemGroupDataSeq="252" ItemGroupOID="SV"> <ItemData ItemOID="SV.STUDYID" Value="CDISCPILOT01"/> <ItemData ItemOID="SV.DOMAIN" Value="SV"/> <ItemData ItemOID="SV.USUBJID" Value="01-701-1192"/> <ItemData ItemOID="SV.VISITNUM" Value="8.1"/> <ItemData ItemOID="SV.VISIT" Value="WEEK 10 (T)"/> <ItemData ItemOID="SV.VISITDY" Value="70"/> <ItemData ItemOID="SV.SVSTDTC" Value="2012-09-30"/> <ItemData ItemOID="SV.SVENDTC" Value="2012-09-30"/> </ItemGroupData>
<ItemGroupData data:ItemGroupDataSeq="253" ItemGroupOID="SV"> <ItemData ItemOID="SV.STUDYID" Value="CDISCPILOT01"/> <ItemData ItemOID="SV.DOMAIN" Value="SV"/> <ItemData ItemOID="SV.USUBJID" Value="01-701-1192"/> <ItemData ItemOID="SV.VISITNUM" Value="9"/> <ItemData ItemOID="SV.VISIT" Value="WEEK 12"/> <ItemData ItemOID="SV.VISITDY" Value="84"/> <ItemData ItemOID="SV.SVSTDTC" Value="2012-10-14"/> <ItemData ItemOID="SV.SVENDTC" Value="2012-10-14"/> </ItemGroupData>
<ItemGroupData data:ItemGroupDataSeq="254" ItemGroupOID="SV"> <ItemData ItemOID="SV.STUDYID" Value="CDISCPILOT01"/> <ItemData ItemOID="SV.DOMAIN" Value="SV"/> <ItemData ItemOID="SV.USUBJID" Value="01-701-1192"/> <ItemData ItemOID="SV.VISITNUM" Value="9.1"/> <ItemData ItemOID="SV.VISIT" Value="WEEK 14 (T)"/> <ItemData ItemOID="SV.VISITDY" Value="98"/> <ItemData ItemOID="SV.SVSTDTC" Value="2012-10-29"/> <ItemData ItemOID="SV.SVENDTC" Value="2012-10-29"/> </ItemGroupData>
<ItemGroupData data:ItemGroupDataSeq="255" ItemGroupOID="SV"> <ItemData ItemOID="SV.STUDYID" Value="CDISCPILOT01"/> <ItemData ItemOID="SV.DOMAIN" Value="SV"/> <ItemData ItemOID="SV.USUBJID" Value="01-701-1192"/> <ItemData ItemOID="SV.VISITNUM" Value="10"/> <ItemData ItemOID="SV.VISIT" Value="WEEK 16"/> <ItemData ItemOID="SV.VISITDY" Value="112"/> <ItemData ItemOID="SV.SVSTDTC" Value="2012-11-15"/> <ItemData ItemOID="SV.SVENDTC" Value="2012-11-15"/> </ItemGroupData>
<ItemGroupData data:ItemGroupDataSeq="256" ItemGroupOID="SV"> <ItemData ItemOID="SV.STUDYID" Value="CDISCPILOT01"/> <ItemData ItemOID="SV.DOMAIN" Value="SV"/> <ItemData ItemOID="SV.USUBJID" Value="01-701-1192"/> <ItemData ItemOID="SV.VISITNUM" Value="10.1"/> <ItemData ItemOID="SV.VISIT" Value="WEEK 18 (T)"/> <ItemData ItemOID="SV.VISITDY" Value="126"/> <ItemData ItemOID="SV.SVSTDTC" Value="2012-11-26"/> <ItemData ItemOID="SV.SVENDTC" Value="2012-11-26"/> </ItemGroupData>
<ItemGroupData data:ItemGroupDataSeq="257" ItemGroupOID="SV"> <ItemData ItemOID="SV.STUDYID" Value="CDISCPILOT01"/> <ItemData ItemOID="SV.DOMAIN" Value="SV"/> <ItemData ItemOID="SV.USUBJID" Value="01-701-1192"/> <ItemData ItemOID="SV.VISITNUM" Value="11"/> <ItemData ItemOID="SV.VISIT" Value="WEEK 20"/> <ItemData ItemOID="SV.VISITDY" Value="140"/> <ItemData ItemOID="SV.SVSTDTC" Value="2012-12-13"/> <ItemData ItemOID="SV.SVENDTC" Value="2012-12-13"/> </ItemGroupData>
<ItemGroupData data:ItemGroupDataSeq="258" ItemGroupOID="SV"> <ItemData ItemOID="SV.STUDYID" Value="CDISCPILOT01"/> <ItemData ItemOID="SV.DOMAIN" Value="SV"/> <ItemData ItemOID="SV.USUBJID" Value="01-701-1192"/> <ItemData ItemOID="SV.VISITNUM" Value="11.1"/> <ItemData ItemOID="SV.VISIT" Value="WEEK 22 (T)"/> <ItemData ItemOID="SV.VISITDY" Value="154"/> <ItemData ItemOID="SV.SVSTDTC" Value="2012-12-27"/> <ItemData ItemOID="SV.SVENDTC" Value="2012-12-27"/> </ItemGroupData>
<ItemGroupData data:ItemGroupDataSeq="259" ItemGroupOID="SV"> <ItemData ItemOID="SV.STUDYID" Value="CDISCPILOT01"/> <ItemData ItemOID="SV.DOMAIN" Value="SV"/> <ItemData ItemOID="SV.USUBJID" Value="01-701-1192"/> <ItemData ItemOID="SV.VISITNUM" Value="12"/> <ItemData ItemOID="SV.VISIT" Value="WEEK 24"/> <ItemData ItemOID="SV.VISITDY" Value="168"/> <ItemData ItemOID="SV.SVSTDTC" Value="2013-01-11"/> <ItemData ItemOID="SV.SVENDTC" Value="2013-01-11"/> </ItemGroupData>
<ItemGroupData data:ItemGroupDataSeq="260" ItemGroupOID="SV"> <ItemData ItemOID="SV.STUDYID" Value="CDISCPILOT01"/> <ItemData ItemOID="SV.DOMAIN" Value="SV"/> <ItemData ItemOID="SV.USUBJID" Value="01-701-1192"/> <ItemData ItemOID="SV.VISITNUM" Value="13"/> <ItemData ItemOID="SV.VISIT" Value="WEEK 26"/> <ItemData ItemOID="SV.VISITDY" Value="182"/> <ItemData ItemOID="SV.SVSTDTC" Value="2013-01-20"/> <ItemData ItemOID="SV.SVENDTC" Value="2013-01-20"/> </ItemGroupData>
<ItemGroupData data:ItemGroupDataSeq="261" ItemGroupOID="SV"> <ItemData ItemOID="SV.STUDYID" Value="CDISCPILOT01"/> <ItemData ItemOID="SV.DOMAIN" Value="SV"/> <ItemData ItemOID="SV.USUBJID" Value="01-701-1203"/> <ItemData ItemOID="SV.VISITNUM" Value="1"/> <ItemData ItemOID="SV.VISIT" Value="SCREENING 1"/> <ItemData ItemOID="SV.VISITDY" Value="-7"/> <ItemData ItemOID="SV.SVSTDTC" Value="2013-01-25"/> <ItemData ItemOID="SV.SVENDTC" Value="2013-01-25"/> </ItemGroupData>
<ItemGroupData data:ItemGroupDataSeq="262" ItemGroupOID="SV"> <ItemData ItemOID="SV.STUDYID" Value="CDISCPILOT01"/> <ItemData ItemOID="SV.DOMAIN" Value="SV"/> <ItemData ItemOID="SV.USUBJID" Value="01-701-1203"/> <ItemData ItemOID="SV.VISITNUM" Value="2"/> <ItemData ItemOID="SV.VISIT" Value="SCREENING 2"/> <ItemData ItemOID="SV.VISITDY" Value="-1"/> <ItemData ItemOID="SV.SVSTDTC" Value="2013-02-01"/> <ItemData ItemOID="SV.SVENDTC" Value="2013-02-01"/> </ItemGroupData>
<ItemGroupData data:ItemGroupDataSeq="263" ItemGroupOID="SV"> <ItemData ItemOID="SV.STUDYID" Value="CDISCPILOT01"/> <ItemData ItemOID="SV.DOMAIN" Value="SV"/> <ItemData ItemOID="SV.USUBJID" Value="01-701-1203"/> <ItemData ItemOID="SV.VISITNUM" Value="3"/> <ItemData ItemOID="SV.VISIT" Value="BASELINE"/> <ItemData ItemOID="SV.VISITDY" Value="1"/> <ItemData ItemOID="SV.SVSTDTC" Value="2013-02-02"/> <ItemData ItemOID="SV.SVENDTC" Value="2013-02-02"/> </ItemGroupData>
<ItemGroupData data:ItemGroupDataSeq="264" ItemGroupOID="SV"> <ItemData ItemOID="SV.STUDYID" Value="CDISCPILOT01"/> <ItemData ItemOID="SV.DOMAIN" Value="SV"/> <ItemData ItemOID="SV.USUBJID" Value="01-701-1203"/> <ItemData ItemOID="SV.VISITNUM" Value="4"/> <ItemData ItemOID="SV.VISIT" Value="WEEK 2"/> <ItemData ItemOID="SV.VISITDY" Value="14"/> <ItemData ItemOID="SV.SVSTDTC" Value="2013-02-23"/> <ItemData ItemOID="SV.SVENDTC" Value="2013-02-23"/> </ItemGroupData>
<ItemGroupData data:ItemGroupDataSeq="265" ItemGroupOID="SV"> <ItemData ItemOID="SV.STUDYID" Value="CDISCPILOT01"/> <ItemData ItemOID="SV.DOMAIN" Value="SV"/> <ItemData ItemOID="SV.USUBJID" Value="01-701-1203"/> <ItemData ItemOID="SV.VISITNUM" Value="5"/> <ItemData ItemOID="SV.VISIT" Value="WEEK 4"/> <ItemData ItemOID="SV.VISITDY" Value="28"/> <ItemData ItemOID="SV.SVSTDTC" Value="2013-03-02"/> <ItemData ItemOID="SV.SVENDTC" Value="2013-03-02"/> </ItemGroupData>
<ItemGroupData data:ItemGroupDataSeq="266" ItemGroupOID="SV"> <ItemData ItemOID="SV.STUDYID" Value="CDISCPILOT01"/> <ItemData ItemOID="SV.DOMAIN" Value="SV"/> <ItemData ItemOID="SV.USUBJID" Value="01-701-1203"/> <ItemData ItemOID="SV.VISITNUM" Value="6"/> <ItemData ItemOID="SV.VISIT" Value="AMBUL ECG REMOVAL"/> <ItemData ItemOID="SV.VISITDY" Value="30"/> <ItemData ItemOID="SV.SVSTDTC" Value="2013-03-04"/> <ItemData ItemOID="SV.SVENDTC" Value="2013-03-04"/> </ItemGroupData>
<ItemGroupData data:ItemGroupDataSeq="267" ItemGroupOID="SV"> <ItemData ItemOID="SV.STUDYID" Value="CDISCPILOT01"/> <ItemData ItemOID="SV.DOMAIN" Value="SV"/> <ItemData ItemOID="SV.USUBJID" Value="01-701-1203"/> <ItemData ItemOID="SV.VISITNUM" Value="7"/> <ItemData ItemOID="SV.VISIT" Value="WEEK 6"/> <ItemData ItemOID="SV.VISITDY" Value="42"/> <ItemData ItemOID="SV.SVSTDTC" Value="2013-03-16"/> <ItemData ItemOID="SV.SVENDTC" Value="2013-03-16"/> </ItemGroupData>
<ItemGroupData data:ItemGroupDataSeq="268" ItemGroupOID="SV"> <ItemData ItemOID="SV.STUDYID" Value="CDISCPILOT01"/> <ItemData ItemOID="SV.DOMAIN" Value="SV"/> <ItemData ItemOID="SV.USUBJID" Value="01-701-1203"/> <ItemData ItemOID="SV.VISITNUM" Value="8"/> <ItemData ItemOID="SV.VISIT" Value="WEEK 8"/> <ItemData ItemOID="SV.VISITDY" Value="56"/> <ItemData ItemOID="SV.SVSTDTC" Value="2013-03-30"/> <ItemData ItemOID="SV.SVENDTC" Value="2013-03-30"/> </ItemGroupData>
<ItemGroupData data:ItemGroupDataSeq="269" ItemGroupOID="SV"> <ItemData ItemOID="SV.STUDYID" Value="CDISCPILOT01"/> <ItemData ItemOID="SV.DOMAIN" Value="SV"/> <ItemData ItemOID="SV.USUBJID" Value="01-701-1203"/> <ItemData ItemOID="SV.VISITNUM" Value="8.1"/> <ItemData ItemOID="SV.VISIT" Value="WEEK 10 (T)"/> <ItemData ItemOID="SV.VISITDY" Value="70"/> <ItemData ItemOID="SV.SVSTDTC" Value="2013-04-13"/> <ItemData ItemOID="SV.SVENDTC" Value="2013-04-13"/> </ItemGroupData>
<ItemGroupData data:ItemGroupDataSeq="270" ItemGroupOID="SV"> <ItemData ItemOID="SV.STUDYID" Value="CDISCPILOT01"/> <ItemData ItemOID="SV.DOMAIN" Value="SV"/> <ItemData ItemOID="SV.USUBJID" Value="01-701-1203"/> <ItemData ItemOID="SV.VISITNUM" Value="9"/> <ItemData ItemOID="SV.VISIT" Value="WEEK 12"/> <ItemData ItemOID="SV.VISITDY" Value="84"/> <ItemData ItemOID="SV.SVSTDTC" Value="2013-05-09"/> <ItemData ItemOID="SV.SVENDTC" Value="2013-05-09"/> </ItemGroupData>
<ItemGroupData data:ItemGroupDataSeq="271" ItemGroupOID="SV"> <ItemData ItemOID="SV.STUDYID" Value="CDISCPILOT01"/> <ItemData ItemOID="SV.DOMAIN" Value="SV"/> <ItemData ItemOID="SV.USUBJID" Value="01-701-1203"/> <ItemData ItemOID="SV.VISITNUM" Value="9.1"/> <ItemData ItemOID="SV.VISIT" Value="WEEK 14 (T)"/> <ItemData ItemOID="SV.VISITDY" Value="98"/> <ItemData ItemOID="SV.SVSTDTC" Value="2013-05-11"/> <ItemData ItemOID="SV.SVENDTC" Value="2013-05-11"/> </ItemGroupData>
<ItemGroupData data:ItemGroupDataSeq="272" ItemGroupOID="SV"> <ItemData ItemOID="SV.STUDYID" Value="CDISCPILOT01"/> <ItemData ItemOID="SV.DOMAIN" Value="SV"/> <ItemData ItemOID="SV.USUBJID" Value="01-701-1203"/> <ItemData ItemOID="SV.VISITNUM" Value="10"/> <ItemData ItemOID="SV.VISIT" Value="WEEK 16"/> <ItemData ItemOID="SV.VISITDY" Value="112"/> <ItemData ItemOID="SV.SVSTDTC" Value="2013-05-25"/> <ItemData ItemOID="SV.SVENDTC" Value="2013-05-25"/> </ItemGroupData>
<ItemGroupData data:ItemGroupDataSeq="273" ItemGroupOID="SV"> <ItemData ItemOID="SV.STUDYID" Value="CDISCPILOT01"/> <ItemData ItemOID="SV.DOMAIN" Value="SV"/> <ItemData ItemOID="SV.USUBJID" Value="01-701-1203"/> <ItemData ItemOID="SV.VISITNUM" Value="10.1"/> <ItemData ItemOID="SV.VISIT" Value="WEEK 18 (T)"/> <ItemData ItemOID="SV.VISITDY" Value="126"/> <ItemData ItemOID="SV.SVSTDTC" Value="2013-06-08"/> <ItemData ItemOID="SV.SVENDTC" Value="2013-06-08"/> </ItemGroupData>
<ItemGroupData data:ItemGroupDataSeq="274" ItemGroupOID="SV"> <ItemData ItemOID="SV.STUDYID" Value="CDISCPILOT01"/> <ItemData ItemOID="SV.DOMAIN" Value="SV"/> <ItemData ItemOID="SV.USUBJID" Value="01-701-1203"/> <ItemData ItemOID="SV.VISITNUM" Value="11"/> <ItemData ItemOID="SV.VISIT" Value="WEEK 20"/> <ItemData ItemOID="SV.VISITDY" Value="140"/> <ItemData ItemOID="SV.SVSTDTC" Value="2013-06-22"/> <ItemData ItemOID="SV.SVENDTC" Value="2013-06-22"/> </ItemGroupData>
<ItemGroupData data:ItemGroupDataSeq="275" ItemGroupOID="SV"> <ItemData ItemOID="SV.STUDYID" Value="CDISCPILOT01"/> <ItemData ItemOID="SV.DOMAIN" Value="SV"/> <ItemData ItemOID="SV.USUBJID" Value="01-701-1203"/> <ItemData ItemOID="SV.VISITNUM" Value="11.1"/> <ItemData ItemOID="SV.VISIT" Value="WEEK 22 (T)"/> <ItemData ItemOID="SV.VISITDY" Value="154"/> <ItemData ItemOID="SV.SVSTDTC" Value="2013-07-07"/> <ItemData ItemOID="SV.SVENDTC" Value="2013-07-07"/> </ItemGroupData>
<ItemGroupData data:ItemGroupDataSeq="276" ItemGroupOID="SV"> <ItemData ItemOID="SV.STUDYID" Value="CDISCPILOT01"/> <ItemData ItemOID="SV.DOMAIN" Value="SV"/> <ItemData ItemOID="SV.USUBJID" Value="01-701-1203"/> <ItemData ItemOID="SV.VISITNUM" Value="12"/> <ItemData ItemOID="SV.VISIT" Value="WEEK 24"/> <ItemData ItemOID="SV.VISITDY" Value="168"/> <ItemData ItemOID="SV.SVSTDTC" Value="2013-07-22"/> <ItemData ItemOID="SV.SVENDTC" Value="2013-07-22"/> </ItemGroupData>
<ItemGroupData data:ItemGroupDataSeq="277" ItemGroupOID="SV"> <ItemData ItemOID="SV.STUDYID" Value="CDISCPILOT01"/> <ItemData ItemOID="SV.DOMAIN" Value="SV"/> <ItemData ItemOID="SV.USUBJID" Value="01-701-1203"/> <ItemData ItemOID="SV.VISITNUM" Value="13"/> <ItemData ItemOID="SV.VISIT" Value="WEEK 26"/> <ItemData ItemOID="SV.VISITDY" Value="182"/> <ItemData ItemOID="SV.SVSTDTC" Value="2013-08-03"/> <ItemData ItemOID="SV.SVENDTC" Value="2013-08-03"/> </ItemGroupData>
<ItemGroupData data:ItemGroupDataSeq="278" ItemGroupOID="SV"> <ItemData ItemOID="SV.STUDYID" Value="CDISCPILOT01"/> <ItemData ItemOID="SV.DOMAIN" Value="SV"/> <ItemData ItemOID="SV.USUBJID" Value="01-701-1211"/> <ItemData ItemOID="SV.VISITNUM" Value="1"/> <ItemData ItemOID="SV.VISIT" Value="SCREENING 1"/> <ItemData ItemOID="SV.VISITDY" Value="-7"/> <ItemData ItemOID="SV.SVSTDTC" Value="2012-10-30"/> <ItemData ItemOID="SV.SVENDTC" Value="2012-10-30"/> </ItemGroupData>
<ItemGroupData data:ItemGroupDataSeq="279" ItemGroupOID="SV"> <ItemData ItemOID="SV.STUDYID" Value="CDISCPILOT01"/> <ItemData ItemOID="SV.DOMAIN" Value="SV"/> <ItemData ItemOID="SV.USUBJID" Value="01-701-1211"/> <ItemData ItemOID="SV.VISITNUM" Value="2"/> <ItemData ItemOID="SV.VISIT" Value="SCREENING 2"/> <ItemData ItemOID="SV.VISITDY" Value="-1"/> <ItemData ItemOID="SV.SVSTDTC" Value="2012-11-14"/> <ItemData ItemOID="SV.SVENDTC" Value="2012-11-14"/> </ItemGroupData>
<ItemGroupData data:ItemGroupDataSeq="280" ItemGroupOID="SV"> <ItemData ItemOID="SV.STUDYID" Value="CDISCPILOT01"/> <ItemData ItemOID="SV.DOMAIN" Value="SV"/> <ItemData ItemOID="SV.USUBJID" Value="01-701-1211"/> <ItemData ItemOID="SV.VISITNUM" Value="3"/> <ItemData ItemOID="SV.VISIT" Value="BASELINE"/> <ItemData ItemOID="SV.VISITDY" Value="1"/> <ItemData ItemOID="SV.SVSTDTC" Value="2012-11-15"/> <ItemData ItemOID="SV.SVENDTC" Value="2012-11-15"/> </ItemGroupData>
<ItemGroupData data:ItemGroupDataSeq="281" ItemGroupOID="SV"> <ItemData ItemOID="SV.STUDYID" Value="CDISCPILOT01"/> <ItemData ItemOID="SV.DOMAIN" Value="SV"/> <ItemData ItemOID="SV.USUBJID" Value="01-701-1211"/> <ItemData ItemOID="SV.VISITNUM" Value="3.5"/> <ItemData ItemOID="SV.VISIT" Value="AMBUL ECG PLACEMENT"/> <ItemData ItemOID="SV.VISITDY" Value="13"/> <ItemData ItemOID="SV.SVSTDTC" Value="2012-11-27"/> <ItemData ItemOID="SV.SVENDTC" Value="2012-11-27"/> </ItemGroupData>
<ItemGroupData data:ItemGroupDataSeq="282" ItemGroupOID="SV"> <ItemData ItemOID="SV.STUDYID" Value="CDISCPILOT01"/> <ItemData ItemOID="SV.DOMAIN" Value="SV"/> <ItemData ItemOID="SV.USUBJID" Value="01-701-1211"/> <ItemData ItemOID="SV.VISITNUM" Value="4"/> <ItemData ItemOID="SV.VISIT" Value="WEEK 2"/> <ItemData ItemOID="SV.VISITDY" Value="14"/> <ItemData ItemOID="SV.SVSTDTC" Value="2012-11-28"/> <ItemData ItemOID="SV.SVENDTC" Value="2012-11-28"/> </ItemGroupData>
<ItemGroupData data:ItemGroupDataSeq="283" ItemGroupOID="SV"> <ItemData ItemOID="SV.STUDYID" Value="CDISCPILOT01"/> <ItemData ItemOID="SV.DOMAIN" Value="SV"/> <ItemData ItemOID="SV.USUBJID" Value="01-701-1211"/> <ItemData ItemOID="SV.VISITNUM" Value="5"/> <ItemData ItemOID="SV.VISIT" Value="WEEK 4"/> <ItemData ItemOID="SV.VISITDY" Value="28"/> <ItemData ItemOID="SV.SVSTDTC" Value="2012-12-11"/> <ItemData ItemOID="SV.SVENDTC" Value="2012-12-11"/> </ItemGroupData>
<ItemGroupData data:ItemGroupDataSeq="284" ItemGroupOID="SV"> <ItemData ItemOID="SV.STUDYID" Value="CDISCPILOT01"/> <ItemData ItemOID="SV.DOMAIN" Value="SV"/> <ItemData ItemOID="SV.USUBJID" Value="01-701-1211"/> <ItemData ItemOID="SV.VISITNUM" Value="6"/> <ItemData ItemOID="SV.VISIT" Value="AMBUL ECG REMOVAL"/> <ItemData ItemOID="SV.VISITDY" Value="30"/> <ItemData ItemOID="SV.SVSTDTC" Value="2012-12-13"/> <ItemData ItemOID="SV.SVENDTC" Value="2012-12-13"/> </ItemGroupData>
<ItemGroupData data:ItemGroupDataSeq="285" ItemGroupOID="SV"> <ItemData ItemOID="SV.STUDYID" Value="CDISCPILOT01"/> <ItemData ItemOID="SV.DOMAIN" Value="SV"/> <ItemData ItemOID="SV.USUBJID" Value="01-701-1211"/> <ItemData ItemOID="SV.VISITNUM" Value="7"/> <ItemData ItemOID="SV.VISIT" Value="WEEK 6"/> <ItemData ItemOID="SV.VISITDY" Value="42"/> <ItemData ItemOID="SV.SVSTDTC" Value="2012-12-25"/> <ItemData ItemOID="SV.SVENDTC" Value="2012-12-25"/> </ItemGroupData>
<ItemGroupData data:ItemGroupDataSeq="286" ItemGroupOID="SV"> <ItemData ItemOID="SV.STUDYID" Value="CDISCPILOT01"/> <ItemData ItemOID="SV.DOMAIN" Value="SV"/> <ItemData ItemOID="SV.USUBJID" Value="01-701-1211"/> <ItemData ItemOID="SV.VISITNUM" Value="8"/> <ItemData ItemOID="SV.VISIT" Value="WEEK 8"/> <ItemData ItemOID="SV.VISITDY" Value="56"/> <ItemData ItemOID="SV.SVSTDTC" Value="2013-01-08"/> <ItemData ItemOID="SV.SVENDTC" Value="2013-01-08"/> </ItemGroupData>
<ItemGroupData data:ItemGroupDataSeq="287" ItemGroupOID="SV"> <ItemData ItemOID="SV.STUDYID" Value="CDISCPILOT01"/> <ItemData ItemOID="SV.DOMAIN" Value="SV"/> <ItemData ItemOID="SV.USUBJID" Value="01-701-1211"/> <ItemData ItemOID="SV.VISITNUM" Value="9"/> <ItemData ItemOID="SV.VISIT" Value="WEEK 12"/> <ItemData ItemOID="SV.VISITDY" Value="84"/> <ItemData ItemOID="SV.SVSTDTC" Value="2013-01-14"/> <ItemData ItemOID="SV.SVENDTC" Value="2013-01-14"/> </ItemGroupData>
<ItemGroupData data:ItemGroupDataSeq="288" ItemGroupOID="SV"> <ItemData ItemOID="SV.STUDYID" Value="CDISCPILOT01"/> <ItemData ItemOID="SV.DOMAIN" Value="SV"/> <ItemData ItemOID="SV.USUBJID" Value="01-701-1234"/> <ItemData ItemOID="SV.VISITNUM" Value="1"/> <ItemData ItemOID="SV.VISIT" Value="SCREENING 1"/> <ItemData ItemOID="SV.VISITDY" Value="-7"/> <ItemData ItemOID="SV.SVSTDTC" Value="2013-03-20"/> <ItemData ItemOID="SV.SVENDTC" Value="2013-03-20"/> </ItemGroupData>
<ItemGroupData data:ItemGroupDataSeq="289" ItemGroupOID="SV"> <ItemData ItemOID="SV.STUDYID" Value="CDISCPILOT01"/> <ItemData ItemOID="SV.DOMAIN" Value="SV"/> <ItemData ItemOID="SV.USUBJID" Value="01-701-1234"/> <ItemData ItemOID="SV.VISITNUM" Value="2"/> <ItemData ItemOID="SV.VISIT" Value="SCREENING 2"/> <ItemData ItemOID="SV.VISITDY" Value="-1"/> <ItemData ItemOID="SV.SVSTDTC" Value="2013-03-28"/> <ItemData ItemOID="SV.SVENDTC" Value="2013-03-28"/> </ItemGroupData>
<ItemGroupData data:ItemGroupDataSeq="290" ItemGroupOID="SV"> <ItemData ItemOID="SV.STUDYID" Value="CDISCPILOT01"/> <ItemData ItemOID="SV.DOMAIN" Value="SV"/> <ItemData ItemOID="SV.USUBJID" Value="01-701-1234"/> <ItemData ItemOID="SV.VISITNUM" Value="3"/> <ItemData ItemOID="SV.VISIT" Value="BASELINE"/> <ItemData ItemOID="SV.VISITDY" Value="1"/> <ItemData ItemOID="SV.SVSTDTC" Value="2013-03-30"/> <ItemData ItemOID="SV.SVENDTC" Value="2013-03-30"/> </ItemGroupData>
<ItemGroupData data:ItemGroupDataSeq="291" ItemGroupOID="SV"> <ItemData ItemOID="SV.STUDYID" Value="CDISCPILOT01"/> <ItemData ItemOID="SV.DOMAIN" Value="SV"/> <ItemData ItemOID="SV.USUBJID" Value="01-701-1234"/> <ItemData ItemOID="SV.VISITNUM" Value="3.5"/> <ItemData ItemOID="SV.VISIT" Value="AMBUL ECG PLACEMENT"/> <ItemData ItemOID="SV.VISITDY" Value="13"/> <ItemData ItemOID="SV.SVSTDTC" Value="2013-04-20"/> <ItemData ItemOID="SV.SVENDTC" Value="2013-04-20"/> </ItemGroupData>
<ItemGroupData data:ItemGroupDataSeq="292" ItemGroupOID="SV"> <ItemData ItemOID="SV.STUDYID" Value="CDISCPILOT01"/> <ItemData ItemOID="SV.DOMAIN" Value="SV"/> <ItemData ItemOID="SV.USUBJID" Value="01-701-1234"/> <ItemData ItemOID="SV.VISITNUM" Value="4"/> <ItemData ItemOID="SV.VISIT" Value="WEEK 2"/> <ItemData ItemOID="SV.VISITDY" Value="14"/> <ItemData ItemOID="SV.SVSTDTC" Value="2013-04-21"/> <ItemData ItemOID="SV.SVENDTC" Value="2013-04-21"/> </ItemGroupData>
<ItemGroupData data:ItemGroupDataSeq="293" ItemGroupOID="SV"> <ItemData ItemOID="SV.STUDYID" Value="CDISCPILOT01"/> <ItemData ItemOID="SV.DOMAIN" Value="SV"/> <ItemData ItemOID="SV.USUBJID" Value="01-701-1234"/> <ItemData ItemOID="SV.VISITNUM" Value="5"/> <ItemData ItemOID="SV.VISIT" Value="WEEK 4"/> <ItemData ItemOID="SV.VISITDY" Value="28"/> <ItemData ItemOID="SV.SVSTDTC" Value="2013-04-28"/> <ItemData ItemOID="SV.SVENDTC" Value="2013-04-28"/> </ItemGroupData>
<ItemGroupData data:ItemGroupDataSeq="294" ItemGroupOID="SV"> <ItemData ItemOID="SV.STUDYID" Value="CDISCPILOT01"/> <ItemData ItemOID="SV.DOMAIN" Value="SV"/> <ItemData ItemOID="SV.USUBJID" Value="01-701-1234"/> <ItemData ItemOID="SV.VISITNUM" Value="6"/> <ItemData ItemOID="SV.VISIT" Value="AMBUL ECG REMOVAL"/> <ItemData ItemOID="SV.VISITDY" Value="30"/> <ItemData ItemOID="SV.SVSTDTC" Value="2013-04-30"/> <ItemData ItemOID="SV.SVENDTC" Value="2013-04-30"/> </ItemGroupData>
<ItemGroupData data:ItemGroupDataSeq="295" ItemGroupOID="SV"> <ItemData ItemOID="SV.STUDYID" Value="CDISCPILOT01"/> <ItemData ItemOID="SV.DOMAIN" Value="SV"/> <ItemData ItemOID="SV.USUBJID" Value="01-701-1234"/> <ItemData ItemOID="SV.VISITNUM" Value="7"/> <ItemData ItemOID="SV.VISIT" Value="WEEK 6"/> <ItemData ItemOID="SV.VISITDY" Value="42"/> <ItemData ItemOID="SV.SVSTDTC" Value="2013-05-08"/> <ItemData ItemOID="SV.SVENDTC" Value="2013-05-08"/> </ItemGroupData>
<ItemGroupData data:ItemGroupDataSeq="296" ItemGroupOID="SV"> <ItemData ItemOID="SV.STUDYID" Value="CDISCPILOT01"/> <ItemData ItemOID="SV.DOMAIN" Value="SV"/> <ItemData ItemOID="SV.USUBJID" Value="01-701-1234"/> <ItemData ItemOID="SV.VISITNUM" Value="8"/> <ItemData ItemOID="SV.VISIT" Value="WEEK 8"/> <ItemData ItemOID="SV.VISITDY" Value="56"/> <ItemData ItemOID="SV.SVSTDTC" Value="2013-05-26"/> <ItemData ItemOID="SV.SVENDTC" Value="2013-05-26"/> </ItemGroupData>
<ItemGroupData data:ItemGroupDataSeq="297" ItemGroupOID="SV"> <ItemData ItemOID="SV.STUDYID" Value="CDISCPILOT01"/> <ItemData ItemOID="SV.DOMAIN" Value="SV"/> <ItemData ItemOID="SV.USUBJID" Value="01-701-1234"/> <ItemData ItemOID="SV.VISITNUM" Value="8.1"/> <ItemData ItemOID="SV.VISIT" Value="WEEK 10 (T)"/> <ItemData ItemOID="SV.VISITDY" Value="70"/> <ItemData ItemOID="SV.SVSTDTC" Value="2013-06-09"/> <ItemData ItemOID="SV.SVENDTC" Value="2013-06-09"/> </ItemGroupData>
<ItemGroupData data:ItemGroupDataSeq="298" ItemGroupOID="SV"> <ItemData ItemOID="SV.STUDYID" Value="CDISCPILOT01"/> <ItemData ItemOID="SV.DOMAIN" Value="SV"/> <ItemData ItemOID="SV.USUBJID" Value="01-701-1234"/> <ItemData ItemOID="SV.VISITNUM" Value="9"/> <ItemData ItemOID="SV.VISIT" Value="WEEK 12"/> <ItemData ItemOID="SV.VISITDY" Value="84"/> <ItemData ItemOID="SV.SVSTDTC" Value="2013-07-07"/> <ItemData ItemOID="SV.SVENDTC" Value="2013-07-07"/> </ItemGroupData>
<ItemGroupData data:ItemGroupDataSeq="299" ItemGroupOID="SV"> <ItemData ItemOID="SV.STUDYID" Value="CDISCPILOT01"/> <ItemData ItemOID="SV.DOMAIN" Value="SV"/> <ItemData ItemOID="SV.USUBJID" Value="01-701-1234"/> <ItemData ItemOID="SV.VISITNUM" Value="10"/> <ItemData ItemOID="SV.VISIT" Value="WEEK 16"/> <ItemData ItemOID="SV.VISITDY" Value="112"/> <ItemData ItemOID="SV.SVSTDTC" Value="2013-07-27"/> <ItemData ItemOID="SV.SVENDTC" Value="2013-07-27"/> </ItemGroupData>
<ItemGroupData data:ItemGroupDataSeq="300" ItemGroupOID="SV"> <ItemData ItemOID="SV.STUDYID" Value="CDISCPILOT01"/> <ItemData ItemOID="SV.DOMAIN" Value="SV"/> <ItemData ItemOID="SV.USUBJID" Value="01-701-1234"/> <ItemData ItemOID="SV.VISITNUM" Value="10.1"/> <ItemData ItemOID="SV.VISIT" Value="WEEK 18 (T)"/> <ItemData ItemOID="SV.VISITDY" Value="126"/> <ItemData ItemOID="SV.SVSTDTC" Value="2013-08-10"/> <ItemData ItemOID="SV.SVENDTC" Value="2013-08-10"/> </ItemGroupData>