<ItemGroupData data:ItemGroupDataSeq="1" ItemGroupOID="SV"> <ItemData ItemOID="SV.STUDYID" Value="CDISCPILOT01"/> <ItemData ItemOID="SV.DOMAIN" Value="SV"/> <ItemData ItemOID="SV.USUBJID" Value="01-701-1015"/> <ItemData ItemOID="SV.VISITNUM" Value="1"/> <ItemData ItemOID="SV.VISIT" Value="SCREENING 1"/> <ItemData ItemOID="SV.VISITDY" Value="-7"/> <ItemData ItemOID="SV.SVSTDTC" Value="2013-12-26"/> <ItemData ItemOID="SV.SVENDTC" Value="2013-12-26"/> </ItemGroupData>
<ItemGroupData data:ItemGroupDataSeq="2" ItemGroupOID="SV"> <ItemData ItemOID="SV.STUDYID" Value="CDISCPILOT01"/> <ItemData ItemOID="SV.DOMAIN" Value="SV"/> <ItemData ItemOID="SV.USUBJID" Value="01-701-1015"/> <ItemData ItemOID="SV.VISITNUM" Value="2"/> <ItemData ItemOID="SV.VISIT" Value="SCREENING 2"/> <ItemData ItemOID="SV.VISITDY" Value="-1"/> <ItemData ItemOID="SV.SVSTDTC" Value="2013-12-31"/> <ItemData ItemOID="SV.SVENDTC" Value="2013-12-31"/> </ItemGroupData>
<ItemGroupData data:ItemGroupDataSeq="3" ItemGroupOID="SV"> <ItemData ItemOID="SV.STUDYID" Value="CDISCPILOT01"/> <ItemData ItemOID="SV.DOMAIN" Value="SV"/> <ItemData ItemOID="SV.USUBJID" Value="01-701-1015"/> <ItemData ItemOID="SV.VISITNUM" Value="3"/> <ItemData ItemOID="SV.VISIT" Value="BASELINE"/> <ItemData ItemOID="SV.VISITDY" Value="1"/> <ItemData ItemOID="SV.SVSTDTC" Value="2014-01-02"/> <ItemData ItemOID="SV.SVENDTC" Value="2014-01-02"/> </ItemGroupData>
<ItemGroupData data:ItemGroupDataSeq="4" ItemGroupOID="SV"> <ItemData ItemOID="SV.STUDYID" Value="CDISCPILOT01"/> <ItemData ItemOID="SV.DOMAIN" Value="SV"/> <ItemData ItemOID="SV.USUBJID" Value="01-701-1015"/> <ItemData ItemOID="SV.VISITNUM" Value="3.5"/> <ItemData ItemOID="SV.VISIT" Value="AMBUL ECG PLACEMENT"/> <ItemData ItemOID="SV.VISITDY" Value="13"/> <ItemData ItemOID="SV.SVSTDTC" Value="2014-01-14"/> <ItemData ItemOID="SV.SVENDTC" Value="2014-01-14"/> </ItemGroupData>
<ItemGroupData data:ItemGroupDataSeq="5" ItemGroupOID="SV"> <ItemData ItemOID="SV.STUDYID" Value="CDISCPILOT01"/> <ItemData ItemOID="SV.DOMAIN" Value="SV"/> <ItemData ItemOID="SV.USUBJID" Value="01-701-1015"/> <ItemData ItemOID="SV.VISITNUM" Value="4"/> <ItemData ItemOID="SV.VISIT" Value="WEEK 2"/> <ItemData ItemOID="SV.VISITDY" Value="14"/> <ItemData ItemOID="SV.SVSTDTC" Value="2014-01-16"/> <ItemData ItemOID="SV.SVENDTC" Value="2014-01-16"/> </ItemGroupData>
<ItemGroupData data:ItemGroupDataSeq="6" ItemGroupOID="SV"> <ItemData ItemOID="SV.STUDYID" Value="CDISCPILOT01"/> <ItemData ItemOID="SV.DOMAIN" Value="SV"/> <ItemData ItemOID="SV.USUBJID" Value="01-701-1015"/> <ItemData ItemOID="SV.VISITNUM" Value="5"/> <ItemData ItemOID="SV.VISIT" Value="WEEK 4"/> <ItemData ItemOID="SV.VISITDY" Value="28"/> <ItemData ItemOID="SV.SVSTDTC" Value="2014-01-30"/> <ItemData ItemOID="SV.SVENDTC" Value="2014-01-30"/> </ItemGroupData>
<ItemGroupData data:ItemGroupDataSeq="7" ItemGroupOID="SV"> <ItemData ItemOID="SV.STUDYID" Value="CDISCPILOT01"/> <ItemData ItemOID="SV.DOMAIN" Value="SV"/> <ItemData ItemOID="SV.USUBJID" Value="01-701-1015"/> <ItemData ItemOID="SV.VISITNUM" Value="6"/> <ItemData ItemOID="SV.VISIT" Value="AMBUL ECG REMOVAL"/> <ItemData ItemOID="SV.VISITDY" Value="30"/> <ItemData ItemOID="SV.SVSTDTC" Value="2014-02-01"/> <ItemData ItemOID="SV.SVENDTC" Value="2014-02-01"/> </ItemGroupData>
<ItemGroupData data:ItemGroupDataSeq="8" ItemGroupOID="SV"> <ItemData ItemOID="SV.STUDYID" Value="CDISCPILOT01"/> <ItemData ItemOID="SV.DOMAIN" Value="SV"/> <ItemData ItemOID="SV.USUBJID" Value="01-701-1015"/> <ItemData ItemOID="SV.VISITNUM" Value="7"/> <ItemData ItemOID="SV.VISIT" Value="WEEK 6"/> <ItemData ItemOID="SV.VISITDY" Value="42"/> <ItemData ItemOID="SV.SVSTDTC" Value="2014-02-12"/> <ItemData ItemOID="SV.SVENDTC" Value="2014-02-12"/> </ItemGroupData>
<ItemGroupData data:ItemGroupDataSeq="9" ItemGroupOID="SV"> <ItemData ItemOID="SV.STUDYID" Value="CDISCPILOT01"/> <ItemData ItemOID="SV.DOMAIN" Value="SV"/> <ItemData ItemOID="SV.USUBJID" Value="01-701-1015"/> <ItemData ItemOID="SV.VISITNUM" Value="8"/> <ItemData ItemOID="SV.VISIT" Value="WEEK 8"/> <ItemData ItemOID="SV.VISITDY" Value="56"/> <ItemData ItemOID="SV.SVSTDTC" Value="2014-03-05"/> <ItemData ItemOID="SV.SVENDTC" Value="2014-03-05"/> </ItemGroupData>
<ItemGroupData data:ItemGroupDataSeq="10" ItemGroupOID="SV"> <ItemData ItemOID="SV.STUDYID" Value="CDISCPILOT01"/> <ItemData ItemOID="SV.DOMAIN" Value="SV"/> <ItemData ItemOID="SV.USUBJID" Value="01-701-1015"/> <ItemData ItemOID="SV.VISITNUM" Value="9"/> <ItemData ItemOID="SV.VISIT" Value="WEEK 12"/> <ItemData ItemOID="SV.VISITDY" Value="84"/> <ItemData ItemOID="SV.SVSTDTC" Value="2014-03-26"/> <ItemData ItemOID="SV.SVENDTC" Value="2014-03-26"/> </ItemGroupData>
<ItemGroupData data:ItemGroupDataSeq="11" ItemGroupOID="SV"> <ItemData ItemOID="SV.STUDYID" Value="CDISCPILOT01"/> <ItemData ItemOID="SV.DOMAIN" Value="SV"/> <ItemData ItemOID="SV.USUBJID" Value="01-701-1015"/> <ItemData ItemOID="SV.VISITNUM" Value="9.1"/> <ItemData ItemOID="SV.VISIT" Value="WEEK 14 (T)"/> <ItemData ItemOID="SV.VISITDY" Value="98"/> <ItemData ItemOID="SV.SVSTDTC" Value="2014-04-09"/> <ItemData ItemOID="SV.SVENDTC" Value="2014-04-09"/> </ItemGroupData>
<ItemGroupData data:ItemGroupDataSeq="12" ItemGroupOID="SV"> <ItemData ItemOID="SV.STUDYID" Value="CDISCPILOT01"/> <ItemData ItemOID="SV.DOMAIN" Value="SV"/> <ItemData ItemOID="SV.USUBJID" Value="01-701-1015"/> <ItemData ItemOID="SV.VISITNUM" Value="10"/> <ItemData ItemOID="SV.VISIT" Value="WEEK 16"/> <ItemData ItemOID="SV.VISITDY" Value="112"/> <ItemData ItemOID="SV.SVSTDTC" Value="2014-05-07"/> <ItemData ItemOID="SV.SVENDTC" Value="2014-05-07"/> </ItemGroupData>
<ItemGroupData data:ItemGroupDataSeq="13" ItemGroupOID="SV"> <ItemData ItemOID="SV.STUDYID" Value="CDISCPILOT01"/> <ItemData ItemOID="SV.DOMAIN" Value="SV"/> <ItemData ItemOID="SV.USUBJID" Value="01-701-1015"/> <ItemData ItemOID="SV.VISITNUM" Value="11"/> <ItemData ItemOID="SV.VISIT" Value="WEEK 20"/> <ItemData ItemOID="SV.VISITDY" Value="140"/> <ItemData ItemOID="SV.SVSTDTC" Value="2014-05-21"/> <ItemData ItemOID="SV.SVENDTC" Value="2014-05-21"/> </ItemGroupData>
<ItemGroupData data:ItemGroupDataSeq="14" ItemGroupOID="SV"> <ItemData ItemOID="SV.STUDYID" Value="CDISCPILOT01"/> <ItemData ItemOID="SV.DOMAIN" Value="SV"/> <ItemData ItemOID="SV.USUBJID" Value="01-701-1015"/> <ItemData ItemOID="SV.VISITNUM" Value="11.1"/> <ItemData ItemOID="SV.VISIT" Value="WEEK 22 (T)"/> <ItemData ItemOID="SV.VISITDY" Value="154"/> <ItemData ItemOID="SV.SVSTDTC" Value="2014-06-04"/> <ItemData ItemOID="SV.SVENDTC" Value="2014-06-04"/> </ItemGroupData>
<ItemGroupData data:ItemGroupDataSeq="15" ItemGroupOID="SV"> <ItemData ItemOID="SV.STUDYID" Value="CDISCPILOT01"/> <ItemData ItemOID="SV.DOMAIN" Value="SV"/> <ItemData ItemOID="SV.USUBJID" Value="01-701-1015"/> <ItemData ItemOID="SV.VISITNUM" Value="12"/> <ItemData ItemOID="SV.VISIT" Value="WEEK 24"/> <ItemData ItemOID="SV.VISITDY" Value="168"/> <ItemData ItemOID="SV.SVSTDTC" Value="2014-06-18"/> <ItemData ItemOID="SV.SVENDTC" Value="2014-06-18"/> </ItemGroupData>
<ItemGroupData data:ItemGroupDataSeq="16" ItemGroupOID="SV"> <ItemData ItemOID="SV.STUDYID" Value="CDISCPILOT01"/> <ItemData ItemOID="SV.DOMAIN" Value="SV"/> <ItemData ItemOID="SV.USUBJID" Value="01-701-1015"/> <ItemData ItemOID="SV.VISITNUM" Value="13"/> <ItemData ItemOID="SV.VISIT" Value="WEEK 26"/> <ItemData ItemOID="SV.VISITDY" Value="182"/> <ItemData ItemOID="SV.SVSTDTC" Value="2014-07-02"/> <ItemData ItemOID="SV.SVENDTC" Value="2014-07-02"/> </ItemGroupData>
<ItemGroupData data:ItemGroupDataSeq="17" ItemGroupOID="SV"> <ItemData ItemOID="SV.STUDYID" Value="CDISCPILOT01"/> <ItemData ItemOID="SV.DOMAIN" Value="SV"/> <ItemData ItemOID="SV.USUBJID" Value="01-701-1023"/> <ItemData ItemOID="SV.VISITNUM" Value="1"/> <ItemData ItemOID="SV.VISIT" Value="SCREENING 1"/> <ItemData ItemOID="SV.VISITDY" Value="-7"/> <ItemData ItemOID="SV.SVSTDTC" Value="2012-07-22"/> <ItemData ItemOID="SV.SVENDTC" Value="2012-07-22"/> </ItemGroupData>
<ItemGroupData data:ItemGroupDataSeq="18" ItemGroupOID="SV"> <ItemData ItemOID="SV.STUDYID" Value="CDISCPILOT01"/> <ItemData ItemOID="SV.DOMAIN" Value="SV"/> <ItemData ItemOID="SV.USUBJID" Value="01-701-1023"/> <ItemData ItemOID="SV.VISITNUM" Value="2"/> <ItemData ItemOID="SV.VISIT" Value="SCREENING 2"/> <ItemData ItemOID="SV.VISITDY" Value="-1"/> <ItemData ItemOID="SV.SVSTDTC" Value="2012-08-03"/> <ItemData ItemOID="SV.SVENDTC" Value="2012-08-03"/> </ItemGroupData>
<ItemGroupData data:ItemGroupDataSeq="19" ItemGroupOID="SV"> <ItemData ItemOID="SV.STUDYID" Value="CDISCPILOT01"/> <ItemData ItemOID="SV.DOMAIN" Value="SV"/> <ItemData ItemOID="SV.USUBJID" Value="01-701-1023"/> <ItemData ItemOID="SV.VISITNUM" Value="3"/> <ItemData ItemOID="SV.VISIT" Value="BASELINE"/> <ItemData ItemOID="SV.VISITDY" Value="1"/> <ItemData ItemOID="SV.SVSTDTC" Value="2012-08-05"/> <ItemData ItemOID="SV.SVENDTC" Value="2012-08-05"/> </ItemGroupData>
<ItemGroupData data:ItemGroupDataSeq="20" ItemGroupOID="SV"> <ItemData ItemOID="SV.STUDYID" Value="CDISCPILOT01"/> <ItemData ItemOID="SV.DOMAIN" Value="SV"/> <ItemData ItemOID="SV.USUBJID" Value="01-701-1023"/> <ItemData ItemOID="SV.VISITNUM" Value="3.5"/> <ItemData ItemOID="SV.VISIT" Value="AMBUL ECG PLACEMENT"/> <ItemData ItemOID="SV.VISITDY" Value="13"/> <ItemData ItemOID="SV.SVSTDTC" Value="2012-08-26"/> <ItemData ItemOID="SV.SVENDTC" Value="2012-08-26"/> </ItemGroupData>
<ItemGroupData data:ItemGroupDataSeq="21" ItemGroupOID="SV"> <ItemData ItemOID="SV.STUDYID" Value="CDISCPILOT01"/> <ItemData ItemOID="SV.DOMAIN" Value="SV"/> <ItemData ItemOID="SV.USUBJID" Value="01-701-1023"/> <ItemData ItemOID="SV.VISITNUM" Value="4"/> <ItemData ItemOID="SV.VISIT" Value="WEEK 2"/> <ItemData ItemOID="SV.VISITDY" Value="14"/> <ItemData ItemOID="SV.SVSTDTC" Value="2012-08-27"/> <ItemData ItemOID="SV.SVENDTC" Value="2012-08-27"/> </ItemGroupData>
<ItemGroupData data:ItemGroupDataSeq="22" ItemGroupOID="SV"> <ItemData ItemOID="SV.STUDYID" Value="CDISCPILOT01"/> <ItemData ItemOID="SV.DOMAIN" Value="SV"/> <ItemData ItemOID="SV.USUBJID" Value="01-701-1023"/> <ItemData ItemOID="SV.VISITNUM" Value="5"/> <ItemData ItemOID="SV.VISIT" Value="WEEK 4"/> <ItemData ItemOID="SV.VISITDY" Value="28"/> <ItemData ItemOID="SV.SVSTDTC" Value="2012-09-02"/> <ItemData ItemOID="SV.SVENDTC" Value="2012-09-02"/> </ItemGroupData>
<ItemGroupData data:ItemGroupDataSeq="23" ItemGroupOID="SV"> <ItemData ItemOID="SV.STUDYID" Value="CDISCPILOT01"/> <ItemData ItemOID="SV.DOMAIN" Value="SV"/> <ItemData ItemOID="SV.USUBJID" Value="01-701-1023"/> <ItemData ItemOID="SV.VISITNUM" Value="5.1"/> <ItemData ItemOID="SV.VISIT" Value="UNSCHEDULED 5.1"/> <ItemData ItemOID="SV.SVSTDTC" Value="2013-02-18"/> <ItemData ItemOID="SV.SVENDTC" Value="2013-02-18"/> </ItemGroupData>
<ItemGroupData data:ItemGroupDataSeq="24" ItemGroupOID="SV"> <ItemData ItemOID="SV.STUDYID" Value="CDISCPILOT01"/> <ItemData ItemOID="SV.DOMAIN" Value="SV"/> <ItemData ItemOID="SV.USUBJID" Value="01-701-1023"/> <ItemData ItemOID="SV.VISITNUM" Value="101"/> <ItemData ItemOID="SV.VISIT" Value="AE FOLLOW-UP"/> <ItemData ItemOID="SV.SVSTDTC" Value="2013-02-18"/> <ItemData ItemOID="SV.SVENDTC" Value="2013-02-18"/> </ItemGroupData>
<ItemGroupData data:ItemGroupDataSeq="25" ItemGroupOID="SV"> <ItemData ItemOID="SV.STUDYID" Value="CDISCPILOT01"/> <ItemData ItemOID="SV.DOMAIN" Value="SV"/> <ItemData ItemOID="SV.USUBJID" Value="01-701-1023"/> <ItemData ItemOID="SV.VISITNUM" Value="201"/> <ItemData ItemOID="SV.VISIT" Value="RETRIEVAL"/> <ItemData ItemOID="SV.VISITDY" Value="168"/> <ItemData ItemOID="SV.SVSTDTC" Value="2013-02-18"/> <ItemData ItemOID="SV.SVENDTC" Value="2013-02-18"/> </ItemGroupData>
<ItemGroupData data:ItemGroupDataSeq="26" ItemGroupOID="SV"> <ItemData ItemOID="SV.STUDYID" Value="CDISCPILOT01"/> <ItemData ItemOID="SV.DOMAIN" Value="SV"/> <ItemData ItemOID="SV.USUBJID" Value="01-701-1028"/> <ItemData ItemOID="SV.VISITNUM" Value="1"/> <ItemData ItemOID="SV.VISIT" Value="SCREENING 1"/> <ItemData ItemOID="SV.VISITDY" Value="-7"/> <ItemData ItemOID="SV.SVSTDTC" Value="2013-07-11"/> <ItemData ItemOID="SV.SVENDTC" Value="2013-07-11"/> </ItemGroupData>
<ItemGroupData data:ItemGroupDataSeq="27" ItemGroupOID="SV"> <ItemData ItemOID="SV.STUDYID" Value="CDISCPILOT01"/> <ItemData ItemOID="SV.DOMAIN" Value="SV"/> <ItemData ItemOID="SV.USUBJID" Value="01-701-1028"/> <ItemData ItemOID="SV.VISITNUM" Value="2"/> <ItemData ItemOID="SV.VISIT" Value="SCREENING 2"/> <ItemData ItemOID="SV.VISITDY" Value="-1"/> <ItemData ItemOID="SV.SVSTDTC" Value="2013-07-17"/> <ItemData ItemOID="SV.SVENDTC" Value="2013-07-17"/> </ItemGroupData>
<ItemGroupData data:ItemGroupDataSeq="28" ItemGroupOID="SV"> <ItemData ItemOID="SV.STUDYID" Value="CDISCPILOT01"/> <ItemData ItemOID="SV.DOMAIN" Value="SV"/> <ItemData ItemOID="SV.USUBJID" Value="01-701-1028"/> <ItemData ItemOID="SV.VISITNUM" Value="3"/> <ItemData ItemOID="SV.VISIT" Value="BASELINE"/> <ItemData ItemOID="SV.VISITDY" Value="1"/> <ItemData ItemOID="SV.SVSTDTC" Value="2013-07-19"/> <ItemData ItemOID="SV.SVENDTC" Value="2013-07-19"/> </ItemGroupData>
<ItemGroupData data:ItemGroupDataSeq="29" ItemGroupOID="SV"> <ItemData ItemOID="SV.STUDYID" Value="CDISCPILOT01"/> <ItemData ItemOID="SV.DOMAIN" Value="SV"/> <ItemData ItemOID="SV.USUBJID" Value="01-701-1028"/> <ItemData ItemOID="SV.VISITNUM" Value="3.5"/> <ItemData ItemOID="SV.VISIT" Value="AMBUL ECG PLACEMENT"/> <ItemData ItemOID="SV.VISITDY" Value="13"/> <ItemData ItemOID="SV.SVSTDTC" Value="2013-07-31"/> <ItemData ItemOID="SV.SVENDTC" Value="2013-07-31"/> </ItemGroupData>
<ItemGroupData data:ItemGroupDataSeq="30" ItemGroupOID="SV"> <ItemData ItemOID="SV.STUDYID" Value="CDISCPILOT01"/> <ItemData ItemOID="SV.DOMAIN" Value="SV"/> <ItemData ItemOID="SV.USUBJID" Value="01-701-1028"/> <ItemData ItemOID="SV.VISITNUM" Value="4"/> <ItemData ItemOID="SV.VISIT" Value="WEEK 2"/> <ItemData ItemOID="SV.VISITDY" Value="14"/> <ItemData ItemOID="SV.SVSTDTC" Value="2013-08-01"/> <ItemData ItemOID="SV.SVENDTC" Value="2013-08-01"/> </ItemGroupData>
<ItemGroupData data:ItemGroupDataSeq="31" ItemGroupOID="SV"> <ItemData ItemOID="SV.STUDYID" Value="CDISCPILOT01"/> <ItemData ItemOID="SV.DOMAIN" Value="SV"/> <ItemData ItemOID="SV.USUBJID" Value="01-701-1028"/> <ItemData ItemOID="SV.VISITNUM" Value="5"/> <ItemData ItemOID="SV.VISIT" Value="WEEK 4"/> <ItemData ItemOID="SV.VISITDY" Value="28"/> <ItemData ItemOID="SV.SVSTDTC" Value="2013-08-14"/> <ItemData ItemOID="SV.SVENDTC" Value="2013-08-14"/> </ItemGroupData>
<ItemGroupData data:ItemGroupDataSeq="32" ItemGroupOID="SV"> <ItemData ItemOID="SV.STUDYID" Value="CDISCPILOT01"/> <ItemData ItemOID="SV.DOMAIN" Value="SV"/> <ItemData ItemOID="SV.USUBJID" Value="01-701-1028"/> <ItemData ItemOID="SV.VISITNUM" Value="6"/> <ItemData ItemOID="SV.VISIT" Value="AMBUL ECG REMOVAL"/> <ItemData ItemOID="SV.VISITDY" Value="30"/> <ItemData ItemOID="SV.SVSTDTC" Value="2013-08-16"/> <ItemData ItemOID="SV.SVENDTC" Value="2013-08-16"/> </ItemGroupData>
<ItemGroupData data:ItemGroupDataSeq="33" ItemGroupOID="SV"> <ItemData ItemOID="SV.STUDYID" Value="CDISCPILOT01"/> <ItemData ItemOID="SV.DOMAIN" Value="SV"/> <ItemData ItemOID="SV.USUBJID" Value="01-701-1028"/> <ItemData ItemOID="SV.VISITNUM" Value="7"/> <ItemData ItemOID="SV.VISIT" Value="WEEK 6"/> <ItemData ItemOID="SV.VISITDY" Value="42"/> <ItemData ItemOID="SV.SVSTDTC" Value="2013-08-29"/> <ItemData ItemOID="SV.SVENDTC" Value="2013-08-29"/> </ItemGroupData>
<ItemGroupData data:ItemGroupDataSeq="34" ItemGroupOID="SV"> <ItemData ItemOID="SV.STUDYID" Value="CDISCPILOT01"/> <ItemData ItemOID="SV.DOMAIN" Value="SV"/> <ItemData ItemOID="SV.USUBJID" Value="01-701-1028"/> <ItemData ItemOID="SV.VISITNUM" Value="8"/> <ItemData ItemOID="SV.VISIT" Value="WEEK 8"/> <ItemData ItemOID="SV.VISITDY" Value="56"/> <ItemData ItemOID="SV.SVSTDTC" Value="2013-09-10"/> <ItemData ItemOID="SV.SVENDTC" Value="2013-09-10"/> </ItemGroupData>
<ItemGroupData data:ItemGroupDataSeq="35" ItemGroupOID="SV"> <ItemData ItemOID="SV.STUDYID" Value="CDISCPILOT01"/> <ItemData ItemOID="SV.DOMAIN" Value="SV"/> <ItemData ItemOID="SV.USUBJID" Value="01-701-1028"/> <ItemData ItemOID="SV.VISITNUM" Value="8.1"/> <ItemData ItemOID="SV.VISIT" Value="WEEK 10 (T)"/> <ItemData ItemOID="SV.VISITDY" Value="70"/> <ItemData ItemOID="SV.SVSTDTC" Value="2013-09-24"/> <ItemData ItemOID="SV.SVENDTC" Value="2013-09-24"/> </ItemGroupData>
<ItemGroupData data:ItemGroupDataSeq="36" ItemGroupOID="SV"> <ItemData ItemOID="SV.STUDYID" Value="CDISCPILOT01"/> <ItemData ItemOID="SV.DOMAIN" Value="SV"/> <ItemData ItemOID="SV.USUBJID" Value="01-701-1028"/> <ItemData ItemOID="SV.VISITNUM" Value="9"/> <ItemData ItemOID="SV.VISIT" Value="WEEK 12"/> <ItemData ItemOID="SV.VISITDY" Value="84"/> <ItemData ItemOID="SV.SVSTDTC" Value="2013-10-09"/> <ItemData ItemOID="SV.SVENDTC" Value="2013-10-09"/> </ItemGroupData>
<ItemGroupData data:ItemGroupDataSeq="37" ItemGroupOID="SV"> <ItemData ItemOID="SV.STUDYID" Value="CDISCPILOT01"/> <ItemData ItemOID="SV.DOMAIN" Value="SV"/> <ItemData ItemOID="SV.USUBJID" Value="01-701-1028"/> <ItemData ItemOID="SV.VISITNUM" Value="9.1"/> <ItemData ItemOID="SV.VISIT" Value="WEEK 14 (T)"/> <ItemData ItemOID="SV.VISITDY" Value="98"/> <ItemData ItemOID="SV.SVSTDTC" Value="2013-10-23"/> <ItemData ItemOID="SV.SVENDTC" Value="2013-10-23"/> </ItemGroupData>
<ItemGroupData data:ItemGroupDataSeq="38" ItemGroupOID="SV"> <ItemData ItemOID="SV.STUDYID" Value="CDISCPILOT01"/> <ItemData ItemOID="SV.DOMAIN" Value="SV"/> <ItemData ItemOID="SV.USUBJID" Value="01-701-1028"/> <ItemData ItemOID="SV.VISITNUM" Value="10"/> <ItemData ItemOID="SV.VISIT" Value="WEEK 16"/> <ItemData ItemOID="SV.VISITDY" Value="112"/> <ItemData ItemOID="SV.SVSTDTC" Value="2013-11-06"/> <ItemData ItemOID="SV.SVENDTC" Value="2013-11-06"/> </ItemGroupData>
<ItemGroupData data:ItemGroupDataSeq="39" ItemGroupOID="SV"> <ItemData ItemOID="SV.STUDYID" Value="CDISCPILOT01"/> <ItemData ItemOID="SV.DOMAIN" Value="SV"/> <ItemData ItemOID="SV.USUBJID" Value="01-701-1028"/> <ItemData ItemOID="SV.VISITNUM" Value="10.1"/> <ItemData ItemOID="SV.VISIT" Value="WEEK 18 (T)"/> <ItemData ItemOID="SV.VISITDY" Value="126"/> <ItemData ItemOID="SV.SVSTDTC" Value="2013-11-20"/> <ItemData ItemOID="SV.SVENDTC" Value="2013-11-20"/> </ItemGroupData>
<ItemGroupData data:ItemGroupDataSeq="40" ItemGroupOID="SV"> <ItemData ItemOID="SV.STUDYID" Value="CDISCPILOT01"/> <ItemData ItemOID="SV.DOMAIN" Value="SV"/> <ItemData ItemOID="SV.USUBJID" Value="01-701-1028"/> <ItemData ItemOID="SV.VISITNUM" Value="11"/> <ItemData ItemOID="SV.VISIT" Value="WEEK 20"/> <ItemData ItemOID="SV.VISITDY" Value="140"/> <ItemData ItemOID="SV.SVSTDTC" Value="2013-12-04"/> <ItemData ItemOID="SV.SVENDTC" Value="2013-12-04"/> </ItemGroupData>
<ItemGroupData data:ItemGroupDataSeq="41" ItemGroupOID="SV"> <ItemData ItemOID="SV.STUDYID" Value="CDISCPILOT01"/> <ItemData ItemOID="SV.DOMAIN" Value="SV"/> <ItemData ItemOID="SV.USUBJID" Value="01-701-1028"/> <ItemData ItemOID="SV.VISITNUM" Value="11.1"/> <ItemData ItemOID="SV.VISIT" Value="WEEK 22 (T)"/> <ItemData ItemOID="SV.VISITDY" Value="154"/> <ItemData ItemOID="SV.SVSTDTC" Value="2013-12-18"/> <ItemData ItemOID="SV.SVENDTC" Value="2013-12-18"/> </ItemGroupData>
<ItemGroupData data:ItemGroupDataSeq="42" ItemGroupOID="SV"> <ItemData ItemOID="SV.STUDYID" Value="CDISCPILOT01"/> <ItemData ItemOID="SV.DOMAIN" Value="SV"/> <ItemData ItemOID="SV.USUBJID" Value="01-701-1028"/> <ItemData ItemOID="SV.VISITNUM" Value="12"/> <ItemData ItemOID="SV.VISIT" Value="WEEK 24"/> <ItemData ItemOID="SV.VISITDY" Value="168"/> <ItemData ItemOID="SV.SVSTDTC" Value="2014-01-06"/> <ItemData ItemOID="SV.SVENDTC" Value="2014-01-06"/> </ItemGroupData>
<ItemGroupData data:ItemGroupDataSeq="43" ItemGroupOID="SV"> <ItemData ItemOID="SV.STUDYID" Value="CDISCPILOT01"/> <ItemData ItemOID="SV.DOMAIN" Value="SV"/> <ItemData ItemOID="SV.USUBJID" Value="01-701-1028"/> <ItemData ItemOID="SV.VISITNUM" Value="13"/> <ItemData ItemOID="SV.VISIT" Value="WEEK 26"/> <ItemData ItemOID="SV.VISITDY" Value="182"/> <ItemData ItemOID="SV.SVSTDTC" Value="2014-01-14"/> <ItemData ItemOID="SV.SVENDTC" Value="2014-01-14"/> </ItemGroupData>
<ItemGroupData data:ItemGroupDataSeq="44" ItemGroupOID="SV"> <ItemData ItemOID="SV.STUDYID" Value="CDISCPILOT01"/> <ItemData ItemOID="SV.DOMAIN" Value="SV"/> <ItemData ItemOID="SV.USUBJID" Value="01-701-1033"/> <ItemData ItemOID="SV.VISITNUM" Value="1"/> <ItemData ItemOID="SV.VISIT" Value="SCREENING 1"/> <ItemData ItemOID="SV.VISITDY" Value="-7"/> <ItemData ItemOID="SV.SVSTDTC" Value="2014-03-10"/> <ItemData ItemOID="SV.SVENDTC" Value="2014-03-10"/> </ItemGroupData>
<ItemGroupData data:ItemGroupDataSeq="45" ItemGroupOID="SV"> <ItemData ItemOID="SV.STUDYID" Value="CDISCPILOT01"/> <ItemData ItemOID="SV.DOMAIN" Value="SV"/> <ItemData ItemOID="SV.USUBJID" Value="01-701-1033"/> <ItemData ItemOID="SV.VISITNUM" Value="2"/> <ItemData ItemOID="SV.VISIT" Value="SCREENING 2"/> <ItemData ItemOID="SV.VISITDY" Value="-1"/> <ItemData ItemOID="SV.SVSTDTC" Value="2014-03-16"/> <ItemData ItemOID="SV.SVENDTC" Value="2014-03-16"/> </ItemGroupData>
<ItemGroupData data:ItemGroupDataSeq="46" ItemGroupOID="SV"> <ItemData ItemOID="SV.STUDYID" Value="CDISCPILOT01"/> <ItemData ItemOID="SV.DOMAIN" Value="SV"/> <ItemData ItemOID="SV.USUBJID" Value="01-701-1033"/> <ItemData ItemOID="SV.VISITNUM" Value="3"/> <ItemData ItemOID="SV.VISIT" Value="BASELINE"/> <ItemData ItemOID="SV.VISITDY" Value="1"/> <ItemData ItemOID="SV.SVSTDTC" Value="2014-03-18"/> <ItemData ItemOID="SV.SVENDTC" Value="2014-03-18"/> </ItemGroupData>
<ItemGroupData data:ItemGroupDataSeq="47" ItemGroupOID="SV"> <ItemData ItemOID="SV.STUDYID" Value="CDISCPILOT01"/> <ItemData ItemOID="SV.DOMAIN" Value="SV"/> <ItemData ItemOID="SV.USUBJID" Value="01-701-1033"/> <ItemData ItemOID="SV.VISITNUM" Value="3.5"/> <ItemData ItemOID="SV.VISIT" Value="AMBUL ECG PLACEMENT"/> <ItemData ItemOID="SV.VISITDY" Value="13"/> <ItemData ItemOID="SV.SVSTDTC" Value="2014-03-31"/> <ItemData ItemOID="SV.SVENDTC" Value="2014-03-31"/> </ItemGroupData>
<ItemGroupData data:ItemGroupDataSeq="48" ItemGroupOID="SV"> <ItemData ItemOID="SV.STUDYID" Value="CDISCPILOT01"/> <ItemData ItemOID="SV.DOMAIN" Value="SV"/> <ItemData ItemOID="SV.USUBJID" Value="01-701-1033"/> <ItemData ItemOID="SV.VISITNUM" Value="4"/> <ItemData ItemOID="SV.VISIT" Value="WEEK 2"/> <ItemData ItemOID="SV.VISITDY" Value="14"/> <ItemData ItemOID="SV.SVSTDTC" Value="2014-04-01"/> <ItemData ItemOID="SV.SVENDTC" Value="2014-04-01"/> </ItemGroupData>
<ItemGroupData data:ItemGroupDataSeq="49" ItemGroupOID="SV"> <ItemData ItemOID="SV.STUDYID" Value="CDISCPILOT01"/> <ItemData ItemOID="SV.DOMAIN" Value="SV"/> <ItemData ItemOID="SV.USUBJID" Value="01-701-1033"/> <ItemData ItemOID="SV.VISITNUM" Value="5"/> <ItemData ItemOID="SV.VISIT" Value="WEEK 4"/> <ItemData ItemOID="SV.VISITDY" Value="28"/> <ItemData ItemOID="SV.SVSTDTC" Value="2014-04-14"/> <ItemData ItemOID="SV.SVENDTC" Value="2014-04-14"/> </ItemGroupData>
<ItemGroupData data:ItemGroupDataSeq="50" ItemGroupOID="SV"> <ItemData ItemOID="SV.STUDYID" Value="CDISCPILOT01"/> <ItemData ItemOID="SV.DOMAIN" Value="SV"/> <ItemData ItemOID="SV.USUBJID" Value="01-701-1033"/> <ItemData ItemOID="SV.VISITNUM" Value="201"/> <ItemData ItemOID="SV.VISIT" Value="RETRIEVAL"/> <ItemData ItemOID="SV.VISITDY" Value="168"/> <ItemData ItemOID="SV.SVSTDTC" Value="2014-09-15"/> <ItemData ItemOID="SV.SVENDTC" Value="2014-09-15"/> </ItemGroupData>
<ItemGroupData data:ItemGroupDataSeq="51" ItemGroupOID="SV"> <ItemData ItemOID="SV.STUDYID" Value="CDISCPILOT01"/> <ItemData ItemOID="SV.DOMAIN" Value="SV"/> <ItemData ItemOID="SV.USUBJID" Value="01-701-1034"/> <ItemData ItemOID="SV.VISITNUM" Value="1"/> <ItemData ItemOID="SV.VISIT" Value="SCREENING 1"/> <ItemData ItemOID="SV.VISITDY" Value="-7"/> <ItemData ItemOID="SV.SVSTDTC" Value="2014-06-24"/> <ItemData ItemOID="SV.SVENDTC" Value="2014-06-24"/> </ItemGroupData>
<ItemGroupData data:ItemGroupDataSeq="52" ItemGroupOID="SV"> <ItemData ItemOID="SV.STUDYID" Value="CDISCPILOT01"/> <ItemData ItemOID="SV.DOMAIN" Value="SV"/> <ItemData ItemOID="SV.USUBJID" Value="01-701-1034"/> <ItemData ItemOID="SV.VISITNUM" Value="2"/> <ItemData ItemOID="SV.VISIT" Value="SCREENING 2"/> <ItemData ItemOID="SV.VISITDY" Value="-1"/> <ItemData ItemOID="SV.SVSTDTC" Value="2014-06-29"/> <ItemData ItemOID="SV.SVENDTC" Value="2014-06-29"/> </ItemGroupData>
<ItemGroupData data:ItemGroupDataSeq="53" ItemGroupOID="SV"> <ItemData ItemOID="SV.STUDYID" Value="CDISCPILOT01"/> <ItemData ItemOID="SV.DOMAIN" Value="SV"/> <ItemData ItemOID="SV.USUBJID" Value="01-701-1034"/> <ItemData ItemOID="SV.VISITNUM" Value="3"/> <ItemData ItemOID="SV.VISIT" Value="BASELINE"/> <ItemData ItemOID="SV.VISITDY" Value="1"/> <ItemData ItemOID="SV.SVSTDTC" Value="2014-07-01"/> <ItemData ItemOID="SV.SVENDTC" Value="2014-07-01"/> </ItemGroupData>
<ItemGroupData data:ItemGroupDataSeq="54" ItemGroupOID="SV"> <ItemData ItemOID="SV.STUDYID" Value="CDISCPILOT01"/> <ItemData ItemOID="SV.DOMAIN" Value="SV"/> <ItemData ItemOID="SV.USUBJID" Value="01-701-1034"/> <ItemData ItemOID="SV.VISITNUM" Value="4"/> <ItemData ItemOID="SV.VISIT" Value="WEEK 2"/> <ItemData ItemOID="SV.VISITDY" Value="14"/> <ItemData ItemOID="SV.SVSTDTC" Value="2014-07-15"/> <ItemData ItemOID="SV.SVENDTC" Value="2014-07-15"/> </ItemGroupData>
<ItemGroupData data:ItemGroupDataSeq="55" ItemGroupOID="SV"> <ItemData ItemOID="SV.STUDYID" Value="CDISCPILOT01"/> <ItemData ItemOID="SV.DOMAIN" Value="SV"/> <ItemData ItemOID="SV.USUBJID" Value="01-701-1034"/> <ItemData ItemOID="SV.VISITNUM" Value="5"/> <ItemData ItemOID="SV.VISIT" Value="WEEK 4"/> <ItemData ItemOID="SV.VISITDY" Value="28"/> <ItemData ItemOID="SV.SVSTDTC" Value="2014-07-29"/> <ItemData ItemOID="SV.SVENDTC" Value="2014-07-29"/> </ItemGroupData>
<ItemGroupData data:ItemGroupDataSeq="56" ItemGroupOID="SV"> <ItemData ItemOID="SV.STUDYID" Value="CDISCPILOT01"/> <ItemData ItemOID="SV.DOMAIN" Value="SV"/> <ItemData ItemOID="SV.USUBJID" Value="01-701-1034"/> <ItemData ItemOID="SV.VISITNUM" Value="6"/> <ItemData ItemOID="SV.VISIT" Value="AMBUL ECG REMOVAL"/> <ItemData ItemOID="SV.VISITDY" Value="30"/> <ItemData ItemOID="SV.SVSTDTC" Value="2014-07-31"/> <ItemData ItemOID="SV.SVENDTC" Value="2014-07-31"/> </ItemGroupData>
<ItemGroupData data:ItemGroupDataSeq="57" ItemGroupOID="SV"> <ItemData ItemOID="SV.STUDYID" Value="CDISCPILOT01"/> <ItemData ItemOID="SV.DOMAIN" Value="SV"/> <ItemData ItemOID="SV.USUBJID" Value="01-701-1034"/> <ItemData ItemOID="SV.VISITNUM" Value="7"/> <ItemData ItemOID="SV.VISIT" Value="WEEK 6"/> <ItemData ItemOID="SV.VISITDY" Value="42"/> <ItemData ItemOID="SV.SVSTDTC" Value="2014-08-11"/> <ItemData ItemOID="SV.SVENDTC" Value="2014-08-11"/> </ItemGroupData>
<ItemGroupData data:ItemGroupDataSeq="58" ItemGroupOID="SV"> <ItemData ItemOID="SV.STUDYID" Value="CDISCPILOT01"/> <ItemData ItemOID="SV.DOMAIN" Value="SV"/> <ItemData ItemOID="SV.USUBJID" Value="01-701-1034"/> <ItemData ItemOID="SV.VISITNUM" Value="8"/> <ItemData ItemOID="SV.VISIT" Value="WEEK 8"/> <ItemData ItemOID="SV.VISITDY" Value="56"/> <ItemData ItemOID="SV.SVSTDTC" Value="2014-08-26"/> <ItemData ItemOID="SV.SVENDTC" Value="2014-08-26"/> </ItemGroupData>
<ItemGroupData data:ItemGroupDataSeq="59" ItemGroupOID="SV"> <ItemData ItemOID="SV.STUDYID" Value="CDISCPILOT01"/> <ItemData ItemOID="SV.DOMAIN" Value="SV"/> <ItemData ItemOID="SV.USUBJID" Value="01-701-1034"/> <ItemData ItemOID="SV.VISITNUM" Value="8.1"/> <ItemData ItemOID="SV.VISIT" Value="WEEK 10 (T)"/> <ItemData ItemOID="SV.VISITDY" Value="70"/> <ItemData ItemOID="SV.SVSTDTC" Value="2014-09-09"/> <ItemData ItemOID="SV.SVENDTC" Value="2014-09-09"/> </ItemGroupData>
<ItemGroupData data:ItemGroupDataSeq="60" ItemGroupOID="SV"> <ItemData ItemOID="SV.STUDYID" Value="CDISCPILOT01"/> <ItemData ItemOID="SV.DOMAIN" Value="SV"/> <ItemData ItemOID="SV.USUBJID" Value="01-701-1034"/> <ItemData ItemOID="SV.VISITNUM" Value="9"/> <ItemData ItemOID="SV.VISIT" Value="WEEK 12"/> <ItemData ItemOID="SV.VISITDY" Value="84"/> <ItemData ItemOID="SV.SVSTDTC" Value="2014-09-25"/> <ItemData ItemOID="SV.SVENDTC" Value="2014-09-25"/> </ItemGroupData>
<ItemGroupData data:ItemGroupDataSeq="61" ItemGroupOID="SV"> <ItemData ItemOID="SV.STUDYID" Value="CDISCPILOT01"/> <ItemData ItemOID="SV.DOMAIN" Value="SV"/> <ItemData ItemOID="SV.USUBJID" Value="01-701-1034"/> <ItemData ItemOID="SV.VISITNUM" Value="9.1"/> <ItemData ItemOID="SV.VISIT" Value="WEEK 14 (T)"/> <ItemData ItemOID="SV.VISITDY" Value="98"/> <ItemData ItemOID="SV.SVSTDTC" Value="2014-10-07"/> <ItemData ItemOID="SV.SVENDTC" Value="2014-10-07"/> </ItemGroupData>
<ItemGroupData data:ItemGroupDataSeq="62" ItemGroupOID="SV"> <ItemData ItemOID="SV.STUDYID" Value="CDISCPILOT01"/> <ItemData ItemOID="SV.DOMAIN" Value="SV"/> <ItemData ItemOID="SV.USUBJID" Value="01-701-1034"/> <ItemData ItemOID="SV.VISITNUM" Value="10"/> <ItemData ItemOID="SV.VISIT" Value="WEEK 16"/> <ItemData ItemOID="SV.VISITDY" Value="112"/> <ItemData ItemOID="SV.SVSTDTC" Value="2014-10-21"/> <ItemData ItemOID="SV.SVENDTC" Value="2014-10-21"/> </ItemGroupData>
<ItemGroupData data:ItemGroupDataSeq="63" ItemGroupOID="SV"> <ItemData ItemOID="SV.STUDYID" Value="CDISCPILOT01"/> <ItemData ItemOID="SV.DOMAIN" Value="SV"/> <ItemData ItemOID="SV.USUBJID" Value="01-701-1034"/> <ItemData ItemOID="SV.VISITNUM" Value="10.1"/> <ItemData ItemOID="SV.VISIT" Value="WEEK 18 (T)"/> <ItemData ItemOID="SV.VISITDY" Value="126"/> <ItemData ItemOID="SV.SVSTDTC" Value="2014-11-04"/> <ItemData ItemOID="SV.SVENDTC" Value="2014-11-04"/> </ItemGroupData>
<ItemGroupData data:ItemGroupDataSeq="64" ItemGroupOID="SV"> <ItemData ItemOID="SV.STUDYID" Value="CDISCPILOT01"/> <ItemData ItemOID="SV.DOMAIN" Value="SV"/> <ItemData ItemOID="SV.USUBJID" Value="01-701-1034"/> <ItemData ItemOID="SV.VISITNUM" Value="11"/> <ItemData ItemOID="SV.VISIT" Value="WEEK 20"/> <ItemData ItemOID="SV.VISITDY" Value="140"/> <ItemData ItemOID="SV.SVSTDTC" Value="2014-11-18"/> <ItemData ItemOID="SV.SVENDTC" Value="2014-11-18"/> </ItemGroupData>
<ItemGroupData data:ItemGroupDataSeq="65" ItemGroupOID="SV"> <ItemData ItemOID="SV.STUDYID" Value="CDISCPILOT01"/> <ItemData ItemOID="SV.DOMAIN" Value="SV"/> <ItemData ItemOID="SV.USUBJID" Value="01-701-1034"/> <ItemData ItemOID="SV.VISITNUM" Value="11.1"/> <ItemData ItemOID="SV.VISIT" Value="WEEK 22 (T)"/> <ItemData ItemOID="SV.VISITDY" Value="154"/> <ItemData ItemOID="SV.SVSTDTC" Value="2014-12-02"/> <ItemData ItemOID="SV.SVENDTC" Value="2014-12-02"/> </ItemGroupData>
<ItemGroupData data:ItemGroupDataSeq="66" ItemGroupOID="SV"> <ItemData ItemOID="SV.STUDYID" Value="CDISCPILOT01"/> <ItemData ItemOID="SV.DOMAIN" Value="SV"/> <ItemData ItemOID="SV.USUBJID" Value="01-701-1034"/> <ItemData ItemOID="SV.VISITNUM" Value="12"/> <ItemData ItemOID="SV.VISIT" Value="WEEK 24"/> <ItemData ItemOID="SV.VISITDY" Value="168"/> <ItemData ItemOID="SV.SVSTDTC" Value="2014-12-17"/> <ItemData ItemOID="SV.SVENDTC" Value="2014-12-17"/> </ItemGroupData>
<ItemGroupData data:ItemGroupDataSeq="67" ItemGroupOID="SV"> <ItemData ItemOID="SV.STUDYID" Value="CDISCPILOT01"/> <ItemData ItemOID="SV.DOMAIN" Value="SV"/> <ItemData ItemOID="SV.USUBJID" Value="01-701-1034"/> <ItemData ItemOID="SV.VISITNUM" Value="13"/> <ItemData ItemOID="SV.VISIT" Value="WEEK 26"/> <ItemData ItemOID="SV.VISITDY" Value="182"/> <ItemData ItemOID="SV.SVSTDTC" Value="2014-12-30"/> <ItemData ItemOID="SV.SVENDTC" Value="2014-12-30"/> </ItemGroupData>
<ItemGroupData data:ItemGroupDataSeq="68" ItemGroupOID="SV"> <ItemData ItemOID="SV.STUDYID" Value="CDISCPILOT01"/> <ItemData ItemOID="SV.DOMAIN" Value="SV"/> <ItemData ItemOID="SV.USUBJID" Value="01-701-1047"/> <ItemData ItemOID="SV.VISITNUM" Value="1"/> <ItemData ItemOID="SV.VISIT" Value="SCREENING 1"/> <ItemData ItemOID="SV.VISITDY" Value="-7"/> <ItemData ItemOID="SV.SVSTDTC" Value="2013-01-22"/> <ItemData ItemOID="SV.SVENDTC" Value="2013-01-22"/> </ItemGroupData>
<ItemGroupData data:ItemGroupDataSeq="69" ItemGroupOID="SV"> <ItemData ItemOID="SV.STUDYID" Value="CDISCPILOT01"/> <ItemData ItemOID="SV.DOMAIN" Value="SV"/> <ItemData ItemOID="SV.USUBJID" Value="01-701-1047"/> <ItemData ItemOID="SV.VISITNUM" Value="2"/> <ItemData ItemOID="SV.VISIT" Value="SCREENING 2"/> <ItemData ItemOID="SV.VISITDY" Value="-1"/> <ItemData ItemOID="SV.SVSTDTC" Value="2013-02-10"/> <ItemData ItemOID="SV.SVENDTC" Value="2013-02-10"/> </ItemGroupData>
<ItemGroupData data:ItemGroupDataSeq="70" ItemGroupOID="SV"> <ItemData ItemOID="SV.STUDYID" Value="CDISCPILOT01"/> <ItemData ItemOID="SV.DOMAIN" Value="SV"/> <ItemData ItemOID="SV.USUBJID" Value="01-701-1047"/> <ItemData ItemOID="SV.VISITNUM" Value="3"/> <ItemData ItemOID="SV.VISIT" Value="BASELINE"/> <ItemData ItemOID="SV.VISITDY" Value="1"/> <ItemData ItemOID="SV.SVSTDTC" Value="2013-02-12"/> <ItemData ItemOID="SV.SVENDTC" Value="2013-02-12"/> </ItemGroupData>
<ItemGroupData data:ItemGroupDataSeq="71" ItemGroupOID="SV"> <ItemData ItemOID="SV.STUDYID" Value="CDISCPILOT01"/> <ItemData ItemOID="SV.DOMAIN" Value="SV"/> <ItemData ItemOID="SV.USUBJID" Value="01-701-1047"/> <ItemData ItemOID="SV.VISITNUM" Value="3.5"/> <ItemData ItemOID="SV.VISIT" Value="AMBUL ECG PLACEMENT"/> <ItemData ItemOID="SV.VISITDY" Value="13"/> <ItemData ItemOID="SV.SVSTDTC" Value="2013-02-24"/> <ItemData ItemOID="SV.SVENDTC" Value="2013-02-24"/> </ItemGroupData>
<ItemGroupData data:ItemGroupDataSeq="72" ItemGroupOID="SV"> <ItemData ItemOID="SV.STUDYID" Value="CDISCPILOT01"/> <ItemData ItemOID="SV.DOMAIN" Value="SV"/> <ItemData ItemOID="SV.USUBJID" Value="01-701-1047"/> <ItemData ItemOID="SV.VISITNUM" Value="4"/> <ItemData ItemOID="SV.VISIT" Value="WEEK 2"/> <ItemData ItemOID="SV.VISITDY" Value="14"/> <ItemData ItemOID="SV.SVSTDTC" Value="2013-02-25"/> <ItemData ItemOID="SV.SVENDTC" Value="2013-02-25"/> </ItemGroupData>
<ItemGroupData data:ItemGroupDataSeq="73" ItemGroupOID="SV"> <ItemData ItemOID="SV.STUDYID" Value="CDISCPILOT01"/> <ItemData ItemOID="SV.DOMAIN" Value="SV"/> <ItemData ItemOID="SV.USUBJID" Value="01-701-1047"/> <ItemData ItemOID="SV.VISITNUM" Value="5"/> <ItemData ItemOID="SV.VISIT" Value="WEEK 4"/> <ItemData ItemOID="SV.VISITDY" Value="28"/> <ItemData ItemOID="SV.SVSTDTC" Value="2013-03-10"/> <ItemData ItemOID="SV.SVENDTC" Value="2013-03-10"/> </ItemGroupData>
<ItemGroupData data:ItemGroupDataSeq="74" ItemGroupOID="SV"> <ItemData ItemOID="SV.STUDYID" Value="CDISCPILOT01"/> <ItemData ItemOID="SV.DOMAIN" Value="SV"/> <ItemData ItemOID="SV.USUBJID" Value="01-701-1047"/> <ItemData ItemOID="SV.VISITNUM" Value="6"/> <ItemData ItemOID="SV.VISIT" Value="AMBUL ECG REMOVAL"/> <ItemData ItemOID="SV.VISITDY" Value="30"/> <ItemData ItemOID="SV.SVSTDTC" Value="2013-03-29"/> <ItemData ItemOID="SV.SVENDTC" Value="2013-03-29"/> </ItemGroupData>
<ItemGroupData data:ItemGroupDataSeq="75" ItemGroupOID="SV"> <ItemData ItemOID="SV.STUDYID" Value="CDISCPILOT01"/> <ItemData ItemOID="SV.DOMAIN" Value="SV"/> <ItemData ItemOID="SV.USUBJID" Value="01-701-1047"/> <ItemData ItemOID="SV.VISITNUM" Value="6.1"/> <ItemData ItemOID="SV.VISIT" Value="UNSCHEDULED 6.1"/> <ItemData ItemOID="SV.SVSTDTC" Value="2013-04-07"/> <ItemData ItemOID="SV.SVENDTC" Value="2013-04-07"/> </ItemGroupData>
<ItemGroupData data:ItemGroupDataSeq="76" ItemGroupOID="SV"> <ItemData ItemOID="SV.STUDYID" Value="CDISCPILOT01"/> <ItemData ItemOID="SV.DOMAIN" Value="SV"/> <ItemData ItemOID="SV.USUBJID" Value="01-701-1047"/> <ItemData ItemOID="SV.VISITNUM" Value="201"/> <ItemData ItemOID="SV.VISIT" Value="RETRIEVAL"/> <ItemData ItemOID="SV.VISITDY" Value="168"/> <ItemData ItemOID="SV.SVSTDTC" Value="2013-07-28"/> <ItemData ItemOID="SV.SVENDTC" Value="2013-07-28"/> </ItemGroupData>
<ItemGroupData data:ItemGroupDataSeq="77" ItemGroupOID="SV"> <ItemData ItemOID="SV.STUDYID" Value="CDISCPILOT01"/> <ItemData ItemOID="SV.DOMAIN" Value="SV"/> <ItemData ItemOID="SV.USUBJID" Value="01-701-1057"/> <ItemData ItemOID="SV.VISITNUM" Value="1"/> <ItemData ItemOID="SV.VISIT" Value="SCREENING 1"/> <ItemData ItemOID="SV.VISITDY" Value="-7"/> <ItemData ItemOID="SV.SVSTDTC" Value="2013-12-20"/> <ItemData ItemOID="SV.SVENDTC" Value="2013-12-20"/> </ItemGroupData>
<ItemGroupData data:ItemGroupDataSeq="78" ItemGroupOID="SV"> <ItemData ItemOID="SV.STUDYID" Value="CDISCPILOT01"/> <ItemData ItemOID="SV.DOMAIN" Value="SV"/> <ItemData ItemOID="SV.USUBJID" Value="01-701-1097"/> <ItemData ItemOID="SV.VISITNUM" Value="1"/> <ItemData ItemOID="SV.VISIT" Value="SCREENING 1"/> <ItemData ItemOID="SV.VISITDY" Value="-7"/> <ItemData ItemOID="SV.SVSTDTC" Value="2013-12-23"/> <ItemData ItemOID="SV.SVENDTC" Value="2013-12-23"/> </ItemGroupData>
<ItemGroupData data:ItemGroupDataSeq="79" ItemGroupOID="SV"> <ItemData ItemOID="SV.STUDYID" Value="CDISCPILOT01"/> <ItemData ItemOID="SV.DOMAIN" Value="SV"/> <ItemData ItemOID="SV.USUBJID" Value="01-701-1097"/> <ItemData ItemOID="SV.VISITNUM" Value="2"/> <ItemData ItemOID="SV.VISIT" Value="SCREENING 2"/> <ItemData ItemOID="SV.VISITDY" Value="-1"/> <ItemData ItemOID="SV.SVSTDTC" Value="2013-12-30"/> <ItemData ItemOID="SV.SVENDTC" Value="2013-12-30"/> </ItemGroupData>
<ItemGroupData data:ItemGroupDataSeq="80" ItemGroupOID="SV"> <ItemData ItemOID="SV.STUDYID" Value="CDISCPILOT01"/> <ItemData ItemOID="SV.DOMAIN" Value="SV"/> <ItemData ItemOID="SV.USUBJID" Value="01-701-1097"/> <ItemData ItemOID="SV.VISITNUM" Value="3"/> <ItemData ItemOID="SV.VISIT" Value="BASELINE"/> <ItemData ItemOID="SV.VISITDY" Value="1"/> <ItemData ItemOID="SV.SVSTDTC" Value="2014-01-01"/> <ItemData ItemOID="SV.SVENDTC" Value="2014-01-01"/> </ItemGroupData>
<ItemGroupData data:ItemGroupDataSeq="81" ItemGroupOID="SV"> <ItemData ItemOID="SV.STUDYID" Value="CDISCPILOT01"/> <ItemData ItemOID="SV.DOMAIN" Value="SV"/> <ItemData ItemOID="SV.USUBJID" Value="01-701-1097"/> <ItemData ItemOID="SV.VISITNUM" Value="3.5"/> <ItemData ItemOID="SV.VISIT" Value="AMBUL ECG PLACEMENT"/> <ItemData ItemOID="SV.VISITDY" Value="13"/> <ItemData ItemOID="SV.SVSTDTC" Value="2014-01-14"/> <ItemData ItemOID="SV.SVENDTC" Value="2014-01-14"/> </ItemGroupData>
<ItemGroupData data:ItemGroupDataSeq="82" ItemGroupOID="SV"> <ItemData ItemOID="SV.STUDYID" Value="CDISCPILOT01"/> <ItemData ItemOID="SV.DOMAIN" Value="SV"/> <ItemData ItemOID="SV.USUBJID" Value="01-701-1097"/> <ItemData ItemOID="SV.VISITNUM" Value="4"/> <ItemData ItemOID="SV.VISIT" Value="WEEK 2"/> <ItemData ItemOID="SV.VISITDY" Value="14"/> <ItemData ItemOID="SV.SVSTDTC" Value="2014-01-15"/> <ItemData ItemOID="SV.SVENDTC" Value="2014-01-15"/> </ItemGroupData>
<ItemGroupData data:ItemGroupDataSeq="83" ItemGroupOID="SV"> <ItemData ItemOID="SV.STUDYID" Value="CDISCPILOT01"/> <ItemData ItemOID="SV.DOMAIN" Value="SV"/> <ItemData ItemOID="SV.USUBJID" Value="01-701-1097"/> <ItemData ItemOID="SV.VISITNUM" Value="5"/> <ItemData ItemOID="SV.VISIT" Value="WEEK 4"/> <ItemData ItemOID="SV.VISITDY" Value="28"/> <ItemData ItemOID="SV.SVSTDTC" Value="2014-01-29"/> <ItemData ItemOID="SV.SVENDTC" Value="2014-01-29"/> </ItemGroupData>
<ItemGroupData data:ItemGroupDataSeq="84" ItemGroupOID="SV"> <ItemData ItemOID="SV.STUDYID" Value="CDISCPILOT01"/> <ItemData ItemOID="SV.DOMAIN" Value="SV"/> <ItemData ItemOID="SV.USUBJID" Value="01-701-1097"/> <ItemData ItemOID="SV.VISITNUM" Value="6"/> <ItemData ItemOID="SV.VISIT" Value="AMBUL ECG REMOVAL"/> <ItemData ItemOID="SV.VISITDY" Value="30"/> <ItemData ItemOID="SV.SVSTDTC" Value="2014-02-04"/> <ItemData ItemOID="SV.SVENDTC" Value="2014-02-04"/> </ItemGroupData>
<ItemGroupData data:ItemGroupDataSeq="85" ItemGroupOID="SV"> <ItemData ItemOID="SV.STUDYID" Value="CDISCPILOT01"/> <ItemData ItemOID="SV.DOMAIN" Value="SV"/> <ItemData ItemOID="SV.USUBJID" Value="01-701-1097"/> <ItemData ItemOID="SV.VISITNUM" Value="7"/> <ItemData ItemOID="SV.VISIT" Value="WEEK 6"/> <ItemData ItemOID="SV.VISITDY" Value="42"/> <ItemData ItemOID="SV.SVSTDTC" Value="2014-02-11"/> <ItemData ItemOID="SV.SVENDTC" Value="2014-02-11"/> </ItemGroupData>
<ItemGroupData data:ItemGroupDataSeq="86" ItemGroupOID="SV"> <ItemData ItemOID="SV.STUDYID" Value="CDISCPILOT01"/> <ItemData ItemOID="SV.DOMAIN" Value="SV"/> <ItemData ItemOID="SV.USUBJID" Value="01-701-1097"/> <ItemData ItemOID="SV.VISITNUM" Value="8"/> <ItemData ItemOID="SV.VISIT" Value="WEEK 8"/> <ItemData ItemOID="SV.VISITDY" Value="56"/> <ItemData ItemOID="SV.SVSTDTC" Value="2014-02-26"/> <ItemData ItemOID="SV.SVENDTC" Value="2014-02-26"/> </ItemGroupData>
<ItemGroupData data:ItemGroupDataSeq="87" ItemGroupOID="SV"> <ItemData ItemOID="SV.STUDYID" Value="CDISCPILOT01"/> <ItemData ItemOID="SV.DOMAIN" Value="SV"/> <ItemData ItemOID="SV.USUBJID" Value="01-701-1097"/> <ItemData ItemOID="SV.VISITNUM" Value="9"/> <ItemData ItemOID="SV.VISIT" Value="WEEK 12"/> <ItemData ItemOID="SV.VISITDY" Value="84"/> <ItemData ItemOID="SV.SVSTDTC" Value="2014-03-26"/> <ItemData ItemOID="SV.SVENDTC" Value="2014-03-26"/> </ItemGroupData>
<ItemGroupData data:ItemGroupDataSeq="88" ItemGroupOID="SV"> <ItemData ItemOID="SV.STUDYID" Value="CDISCPILOT01"/> <ItemData ItemOID="SV.DOMAIN" Value="SV"/> <ItemData ItemOID="SV.USUBJID" Value="01-701-1097"/> <ItemData ItemOID="SV.VISITNUM" Value="9.1"/> <ItemData ItemOID="SV.VISIT" Value="WEEK 14 (T)"/> <ItemData ItemOID="SV.VISITDY" Value="98"/> <ItemData ItemOID="SV.SVSTDTC" Value="2014-04-09"/> <ItemData ItemOID="SV.SVENDTC" Value="2014-04-09"/> </ItemGroupData>
<ItemGroupData data:ItemGroupDataSeq="89" ItemGroupOID="SV"> <ItemData ItemOID="SV.STUDYID" Value="CDISCPILOT01"/> <ItemData ItemOID="SV.DOMAIN" Value="SV"/> <ItemData ItemOID="SV.USUBJID" Value="01-701-1097"/> <ItemData ItemOID="SV.VISITNUM" Value="10"/> <ItemData ItemOID="SV.VISIT" Value="WEEK 16"/> <ItemData ItemOID="SV.VISITDY" Value="112"/> <ItemData ItemOID="SV.SVSTDTC" Value="2014-04-23"/> <ItemData ItemOID="SV.SVENDTC" Value="2014-04-23"/> </ItemGroupData>
<ItemGroupData data:ItemGroupDataSeq="90" ItemGroupOID="SV"> <ItemData ItemOID="SV.STUDYID" Value="CDISCPILOT01"/> <ItemData ItemOID="SV.DOMAIN" Value="SV"/> <ItemData ItemOID="SV.USUBJID" Value="01-701-1097"/> <ItemData ItemOID="SV.VISITNUM" Value="10.1"/> <ItemData ItemOID="SV.VISIT" Value="WEEK 18 (T)"/> <ItemData ItemOID="SV.VISITDY" Value="126"/> <ItemData ItemOID="SV.SVSTDTC" Value="2014-05-07"/> <ItemData ItemOID="SV.SVENDTC" Value="2014-05-07"/> </ItemGroupData>
<ItemGroupData data:ItemGroupDataSeq="91" ItemGroupOID="SV"> <ItemData ItemOID="SV.STUDYID" Value="CDISCPILOT01"/> <ItemData ItemOID="SV.DOMAIN" Value="SV"/> <ItemData ItemOID="SV.USUBJID" Value="01-701-1097"/> <ItemData ItemOID="SV.VISITNUM" Value="11"/> <ItemData ItemOID="SV.VISIT" Value="WEEK 20"/> <ItemData ItemOID="SV.VISITDY" Value="140"/> <ItemData ItemOID="SV.SVSTDTC" Value="2014-05-21"/> <ItemData ItemOID="SV.SVENDTC" Value="2014-05-21"/> </ItemGroupData>
<ItemGroupData data:ItemGroupDataSeq="92" ItemGroupOID="SV"> <ItemData ItemOID="SV.STUDYID" Value="CDISCPILOT01"/> <ItemData ItemOID="SV.DOMAIN" Value="SV"/> <ItemData ItemOID="SV.USUBJID" Value="01-701-1097"/> <ItemData ItemOID="SV.VISITNUM" Value="11.1"/> <ItemData ItemOID="SV.VISIT" Value="WEEK 22 (T)"/> <ItemData ItemOID="SV.VISITDY" Value="154"/> <ItemData ItemOID="SV.SVSTDTC" Value="2014-06-04"/> <ItemData ItemOID="SV.SVENDTC" Value="2014-06-04"/> </ItemGroupData>
<ItemGroupData data:ItemGroupDataSeq="93" ItemGroupOID="SV"> <ItemData ItemOID="SV.STUDYID" Value="CDISCPILOT01"/> <ItemData ItemOID="SV.DOMAIN" Value="SV"/> <ItemData ItemOID="SV.USUBJID" Value="01-701-1097"/> <ItemData ItemOID="SV.VISITNUM" Value="12"/> <ItemData ItemOID="SV.VISIT" Value="WEEK 24"/> <ItemData ItemOID="SV.VISITDY" Value="168"/> <ItemData ItemOID="SV.SVSTDTC" Value="2014-06-18"/> <ItemData ItemOID="SV.SVENDTC" Value="2014-06-18"/> </ItemGroupData>
<ItemGroupData data:ItemGroupDataSeq="94" ItemGroupOID="SV"> <ItemData ItemOID="SV.STUDYID" Value="CDISCPILOT01"/> <ItemData ItemOID="SV.DOMAIN" Value="SV"/> <ItemData ItemOID="SV.USUBJID" Value="01-701-1097"/> <ItemData ItemOID="SV.VISITNUM" Value="13"/> <ItemData ItemOID="SV.VISIT" Value="WEEK 26"/> <ItemData ItemOID="SV.VISITDY" Value="182"/> <ItemData ItemOID="SV.SVSTDTC" Value="2014-07-09"/> <ItemData ItemOID="SV.SVENDTC" Value="2014-07-09"/> </ItemGroupData>
<ItemGroupData data:ItemGroupDataSeq="95" ItemGroupOID="SV"> <ItemData ItemOID="SV.STUDYID" Value="CDISCPILOT01"/> <ItemData ItemOID="SV.DOMAIN" Value="SV"/> <ItemData ItemOID="SV.USUBJID" Value="01-701-1111"/> <ItemData ItemOID="SV.VISITNUM" Value="1"/> <ItemData ItemOID="SV.VISIT" Value="SCREENING 1"/> <ItemData ItemOID="SV.VISITDY" Value="-7"/> <ItemData ItemOID="SV.SVSTDTC" Value="2012-08-25"/> <ItemData ItemOID="SV.SVENDTC" Value="2012-08-25"/> </ItemGroupData>
<ItemGroupData data:ItemGroupDataSeq="96" ItemGroupOID="SV"> <ItemData ItemOID="SV.STUDYID" Value="CDISCPILOT01"/> <ItemData ItemOID="SV.DOMAIN" Value="SV"/> <ItemData ItemOID="SV.USUBJID" Value="01-701-1111"/> <ItemData ItemOID="SV.VISITNUM" Value="2"/> <ItemData ItemOID="SV.VISIT" Value="SCREENING 2"/> <ItemData ItemOID="SV.VISITDY" Value="-1"/> <ItemData ItemOID="SV.SVSTDTC" Value="2012-09-05"/> <ItemData ItemOID="SV.SVENDTC" Value="2012-09-05"/> </ItemGroupData>
<ItemGroupData data:ItemGroupDataSeq="97" ItemGroupOID="SV"> <ItemData ItemOID="SV.STUDYID" Value="CDISCPILOT01"/> <ItemData ItemOID="SV.DOMAIN" Value="SV"/> <ItemData ItemOID="SV.USUBJID" Value="01-701-1111"/> <ItemData ItemOID="SV.VISITNUM" Value="3"/> <ItemData ItemOID="SV.VISIT" Value="BASELINE"/> <ItemData ItemOID="SV.VISITDY" Value="1"/> <ItemData ItemOID="SV.SVSTDTC" Value="2012-09-07"/> <ItemData ItemOID="SV.SVENDTC" Value="2012-09-07"/> </ItemGroupData>
<ItemGroupData data:ItemGroupDataSeq="98" ItemGroupOID="SV"> <ItemData ItemOID="SV.STUDYID" Value="CDISCPILOT01"/> <ItemData ItemOID="SV.DOMAIN" Value="SV"/> <ItemData ItemOID="SV.USUBJID" Value="01-701-1111"/> <ItemData ItemOID="SV.VISITNUM" Value="4"/> <ItemData ItemOID="SV.VISIT" Value="WEEK 2"/> <ItemData ItemOID="SV.VISITDY" Value="14"/> <ItemData ItemOID="SV.SVSTDTC" Value="2012-09-17"/> <ItemData ItemOID="SV.SVENDTC" Value="2012-09-17"/> </ItemGroupData>
<ItemGroupData data:ItemGroupDataSeq="99" ItemGroupOID="SV"> <ItemData ItemOID="SV.STUDYID" Value="CDISCPILOT01"/> <ItemData ItemOID="SV.DOMAIN" Value="SV"/> <ItemData ItemOID="SV.USUBJID" Value="01-701-1111"/> <ItemData ItemOID="SV.VISITNUM" Value="101"/> <ItemData ItemOID="SV.VISIT" Value="AE FOLLOW-UP"/> <ItemData ItemOID="SV.SVSTDTC" Value="2012-09-29"/> <ItemData ItemOID="SV.SVENDTC" Value="2012-09-29"/> </ItemGroupData>
<ItemGroupData data:ItemGroupDataSeq="100" ItemGroupOID="SV"> <ItemData ItemOID="SV.STUDYID" Value="CDISCPILOT01"/> <ItemData ItemOID="SV.DOMAIN" Value="SV"/> <ItemData ItemOID="SV.USUBJID" Value="01-701-1111"/> <ItemData ItemOID="SV.VISITNUM" Value="201"/> <ItemData ItemOID="SV.VISIT" Value="RETRIEVAL"/> <ItemData ItemOID="SV.VISITDY" Value="168"/> <ItemData ItemOID="SV.SVSTDTC" Value="2013-02-22"/> <ItemData ItemOID="SV.SVENDTC" Value="2013-02-22"/> </ItemGroupData>