<ItemGroupData data:ItemGroupDataSeq="501" ItemGroupOID="SV"> <ItemData ItemOID="SV.STUDYID" Value="CDISCPILOT01"/> <ItemData ItemOID="SV.DOMAIN" Value="SV"/> <ItemData ItemOID="SV.USUBJID" Value="01-701-1392"/> <ItemData ItemOID="SV.VISITNUM" Value="5"/> <ItemData ItemOID="SV.VISIT" Value="WEEK 4"/> <ItemData ItemOID="SV.VISITDY" Value="28"/> <ItemData ItemOID="SV.SVSTDTC" Value="2012-11-24"/> <ItemData ItemOID="SV.SVENDTC" Value="2012-11-24"/> </ItemGroupData>
<ItemGroupData data:ItemGroupDataSeq="502" ItemGroupOID="SV"> <ItemData ItemOID="SV.STUDYID" Value="CDISCPILOT01"/> <ItemData ItemOID="SV.DOMAIN" Value="SV"/> <ItemData ItemOID="SV.USUBJID" Value="01-701-1392"/> <ItemData ItemOID="SV.VISITNUM" Value="6"/> <ItemData ItemOID="SV.VISIT" Value="AMBUL ECG REMOVAL"/> <ItemData ItemOID="SV.VISITDY" Value="30"/> <ItemData ItemOID="SV.SVSTDTC" Value="2012-11-26"/> <ItemData ItemOID="SV.SVENDTC" Value="2012-11-26"/> </ItemGroupData>
<ItemGroupData data:ItemGroupDataSeq="503" ItemGroupOID="SV"> <ItemData ItemOID="SV.STUDYID" Value="CDISCPILOT01"/> <ItemData ItemOID="SV.DOMAIN" Value="SV"/> <ItemData ItemOID="SV.USUBJID" Value="01-701-1392"/> <ItemData ItemOID="SV.VISITNUM" Value="7"/> <ItemData ItemOID="SV.VISIT" Value="WEEK 6"/> <ItemData ItemOID="SV.VISITDY" Value="42"/> <ItemData ItemOID="SV.SVSTDTC" Value="2012-12-09"/> <ItemData ItemOID="SV.SVENDTC" Value="2012-12-09"/> </ItemGroupData>
<ItemGroupData data:ItemGroupDataSeq="504" ItemGroupOID="SV"> <ItemData ItemOID="SV.STUDYID" Value="CDISCPILOT01"/> <ItemData ItemOID="SV.DOMAIN" Value="SV"/> <ItemData ItemOID="SV.USUBJID" Value="01-701-1392"/> <ItemData ItemOID="SV.VISITNUM" Value="8"/> <ItemData ItemOID="SV.VISIT" Value="WEEK 8"/> <ItemData ItemOID="SV.VISITDY" Value="56"/> <ItemData ItemOID="SV.SVSTDTC" Value="2012-12-20"/> <ItemData ItemOID="SV.SVENDTC" Value="2012-12-20"/> </ItemGroupData>
<ItemGroupData data:ItemGroupDataSeq="505" ItemGroupOID="SV"> <ItemData ItemOID="SV.STUDYID" Value="CDISCPILOT01"/> <ItemData ItemOID="SV.DOMAIN" Value="SV"/> <ItemData ItemOID="SV.USUBJID" Value="01-701-1392"/> <ItemData ItemOID="SV.VISITNUM" Value="8.1"/> <ItemData ItemOID="SV.VISIT" Value="WEEK 10 (T)"/> <ItemData ItemOID="SV.VISITDY" Value="70"/> <ItemData ItemOID="SV.SVSTDTC" Value="2013-01-06"/> <ItemData ItemOID="SV.SVENDTC" Value="2013-01-06"/> </ItemGroupData>
<ItemGroupData data:ItemGroupDataSeq="506" ItemGroupOID="SV"> <ItemData ItemOID="SV.STUDYID" Value="CDISCPILOT01"/> <ItemData ItemOID="SV.DOMAIN" Value="SV"/> <ItemData ItemOID="SV.USUBJID" Value="01-701-1392"/> <ItemData ItemOID="SV.VISITNUM" Value="9"/> <ItemData ItemOID="SV.VISIT" Value="WEEK 12"/> <ItemData ItemOID="SV.VISITDY" Value="84"/> <ItemData ItemOID="SV.SVSTDTC" Value="2013-01-20"/> <ItemData ItemOID="SV.SVENDTC" Value="2013-01-20"/> </ItemGroupData>
<ItemGroupData data:ItemGroupDataSeq="507" ItemGroupOID="SV"> <ItemData ItemOID="SV.STUDYID" Value="CDISCPILOT01"/> <ItemData ItemOID="SV.DOMAIN" Value="SV"/> <ItemData ItemOID="SV.USUBJID" Value="01-701-1392"/> <ItemData ItemOID="SV.VISITNUM" Value="9.1"/> <ItemData ItemOID="SV.VISIT" Value="WEEK 14 (T)"/> <ItemData ItemOID="SV.VISITDY" Value="98"/> <ItemData ItemOID="SV.SVSTDTC" Value="2013-02-03"/> <ItemData ItemOID="SV.SVENDTC" Value="2013-02-03"/> </ItemGroupData>
<ItemGroupData data:ItemGroupDataSeq="508" ItemGroupOID="SV"> <ItemData ItemOID="SV.STUDYID" Value="CDISCPILOT01"/> <ItemData ItemOID="SV.DOMAIN" Value="SV"/> <ItemData ItemOID="SV.USUBJID" Value="01-701-1392"/> <ItemData ItemOID="SV.VISITNUM" Value="10"/> <ItemData ItemOID="SV.VISIT" Value="WEEK 16"/> <ItemData ItemOID="SV.VISITDY" Value="112"/> <ItemData ItemOID="SV.SVSTDTC" Value="2013-02-17"/> <ItemData ItemOID="SV.SVENDTC" Value="2013-02-17"/> </ItemGroupData>
<ItemGroupData data:ItemGroupDataSeq="509" ItemGroupOID="SV"> <ItemData ItemOID="SV.STUDYID" Value="CDISCPILOT01"/> <ItemData ItemOID="SV.DOMAIN" Value="SV"/> <ItemData ItemOID="SV.USUBJID" Value="01-701-1392"/> <ItemData ItemOID="SV.VISITNUM" Value="10.1"/> <ItemData ItemOID="SV.VISIT" Value="WEEK 18 (T)"/> <ItemData ItemOID="SV.VISITDY" Value="126"/> <ItemData ItemOID="SV.SVSTDTC" Value="2013-03-03"/> <ItemData ItemOID="SV.SVENDTC" Value="2013-03-03"/> </ItemGroupData>
<ItemGroupData data:ItemGroupDataSeq="510" ItemGroupOID="SV"> <ItemData ItemOID="SV.STUDYID" Value="CDISCPILOT01"/> <ItemData ItemOID="SV.DOMAIN" Value="SV"/> <ItemData ItemOID="SV.USUBJID" Value="01-701-1392"/> <ItemData ItemOID="SV.VISITNUM" Value="11"/> <ItemData ItemOID="SV.VISIT" Value="WEEK 20"/> <ItemData ItemOID="SV.VISITDY" Value="140"/> <ItemData ItemOID="SV.SVSTDTC" Value="2013-03-17"/> <ItemData ItemOID="SV.SVENDTC" Value="2013-03-17"/> </ItemGroupData>
<ItemGroupData data:ItemGroupDataSeq="511" ItemGroupOID="SV"> <ItemData ItemOID="SV.STUDYID" Value="CDISCPILOT01"/> <ItemData ItemOID="SV.DOMAIN" Value="SV"/> <ItemData ItemOID="SV.USUBJID" Value="01-701-1392"/> <ItemData ItemOID="SV.VISITNUM" Value="11.1"/> <ItemData ItemOID="SV.VISIT" Value="WEEK 22 (T)"/> <ItemData ItemOID="SV.VISITDY" Value="154"/> <ItemData ItemOID="SV.SVSTDTC" Value="2013-03-31"/> <ItemData ItemOID="SV.SVENDTC" Value="2013-03-31"/> </ItemGroupData>
<ItemGroupData data:ItemGroupDataSeq="512" ItemGroupOID="SV"> <ItemData ItemOID="SV.STUDYID" Value="CDISCPILOT01"/> <ItemData ItemOID="SV.DOMAIN" Value="SV"/> <ItemData ItemOID="SV.USUBJID" Value="01-701-1392"/> <ItemData ItemOID="SV.VISITNUM" Value="12"/> <ItemData ItemOID="SV.VISIT" Value="WEEK 24"/> <ItemData ItemOID="SV.VISITDY" Value="168"/> <ItemData ItemOID="SV.SVSTDTC" Value="2013-04-15"/> <ItemData ItemOID="SV.SVENDTC" Value="2013-04-15"/> </ItemGroupData>
<ItemGroupData data:ItemGroupDataSeq="513" ItemGroupOID="SV"> <ItemData ItemOID="SV.STUDYID" Value="CDISCPILOT01"/> <ItemData ItemOID="SV.DOMAIN" Value="SV"/> <ItemData ItemOID="SV.USUBJID" Value="01-701-1392"/> <ItemData ItemOID="SV.VISITNUM" Value="13"/> <ItemData ItemOID="SV.VISIT" Value="WEEK 26"/> <ItemData ItemOID="SV.VISITDY" Value="182"/> <ItemData ItemOID="SV.SVSTDTC" Value="2013-04-28"/> <ItemData ItemOID="SV.SVENDTC" Value="2013-04-28"/> </ItemGroupData>
<ItemGroupData data:ItemGroupDataSeq="514" ItemGroupOID="SV"> <ItemData ItemOID="SV.STUDYID" Value="CDISCPILOT01"/> <ItemData ItemOID="SV.DOMAIN" Value="SV"/> <ItemData ItemOID="SV.USUBJID" Value="01-701-1411"/> <ItemData ItemOID="SV.VISITNUM" Value="1"/> <ItemData ItemOID="SV.VISIT" Value="SCREENING 1"/> <ItemData ItemOID="SV.VISITDY" Value="-7"/> <ItemData ItemOID="SV.SVSTDTC" Value="2012-11-14"/> <ItemData ItemOID="SV.SVENDTC" Value="2012-11-14"/> </ItemGroupData>
<ItemGroupData data:ItemGroupDataSeq="515" ItemGroupOID="SV"> <ItemData ItemOID="SV.STUDYID" Value="CDISCPILOT01"/> <ItemData ItemOID="SV.DOMAIN" Value="SV"/> <ItemData ItemOID="SV.USUBJID" Value="01-701-1415"/> <ItemData ItemOID="SV.VISITNUM" Value="1"/> <ItemData ItemOID="SV.VISIT" Value="SCREENING 1"/> <ItemData ItemOID="SV.VISITDY" Value="-7"/> <ItemData ItemOID="SV.SVSTDTC" Value="2013-09-15"/> <ItemData ItemOID="SV.SVENDTC" Value="2013-09-15"/> </ItemGroupData>
<ItemGroupData data:ItemGroupDataSeq="516" ItemGroupOID="SV"> <ItemData ItemOID="SV.STUDYID" Value="CDISCPILOT01"/> <ItemData ItemOID="SV.DOMAIN" Value="SV"/> <ItemData ItemOID="SV.USUBJID" Value="01-701-1415"/> <ItemData ItemOID="SV.VISITNUM" Value="1.1"/> <ItemData ItemOID="SV.VISIT" Value="UNSCHEDULED 1.1"/> <ItemData ItemOID="SV.SVSTDTC" Value="2013-09-21"/> <ItemData ItemOID="SV.SVENDTC" Value="2013-09-21"/> </ItemGroupData>
<ItemGroupData data:ItemGroupDataSeq="517" ItemGroupOID="SV"> <ItemData ItemOID="SV.STUDYID" Value="CDISCPILOT01"/> <ItemData ItemOID="SV.DOMAIN" Value="SV"/> <ItemData ItemOID="SV.USUBJID" Value="01-701-1415"/> <ItemData ItemOID="SV.VISITNUM" Value="2"/> <ItemData ItemOID="SV.VISIT" Value="SCREENING 2"/> <ItemData ItemOID="SV.VISITDY" Value="-1"/> <ItemData ItemOID="SV.SVSTDTC" Value="2013-09-21"/> <ItemData ItemOID="SV.SVENDTC" Value="2013-09-21"/> </ItemGroupData>
<ItemGroupData data:ItemGroupDataSeq="518" ItemGroupOID="SV"> <ItemData ItemOID="SV.STUDYID" Value="CDISCPILOT01"/> <ItemData ItemOID="SV.DOMAIN" Value="SV"/> <ItemData ItemOID="SV.USUBJID" Value="01-701-1415"/> <ItemData ItemOID="SV.VISITNUM" Value="3"/> <ItemData ItemOID="SV.VISIT" Value="BASELINE"/> <ItemData ItemOID="SV.VISITDY" Value="1"/> <ItemData ItemOID="SV.SVSTDTC" Value="2013-09-23"/> <ItemData ItemOID="SV.SVENDTC" Value="2013-09-23"/> </ItemGroupData>
<ItemGroupData data:ItemGroupDataSeq="519" ItemGroupOID="SV"> <ItemData ItemOID="SV.STUDYID" Value="CDISCPILOT01"/> <ItemData ItemOID="SV.DOMAIN" Value="SV"/> <ItemData ItemOID="SV.USUBJID" Value="01-701-1415"/> <ItemData ItemOID="SV.VISITNUM" Value="3.5"/> <ItemData ItemOID="SV.VISIT" Value="AMBUL ECG PLACEMENT"/> <ItemData ItemOID="SV.VISITDY" Value="13"/> <ItemData ItemOID="SV.SVSTDTC" Value="2013-10-06"/> <ItemData ItemOID="SV.SVENDTC" Value="2013-10-06"/> </ItemGroupData>
<ItemGroupData data:ItemGroupDataSeq="520" ItemGroupOID="SV"> <ItemData ItemOID="SV.STUDYID" Value="CDISCPILOT01"/> <ItemData ItemOID="SV.DOMAIN" Value="SV"/> <ItemData ItemOID="SV.USUBJID" Value="01-701-1415"/> <ItemData ItemOID="SV.VISITNUM" Value="4"/> <ItemData ItemOID="SV.VISIT" Value="WEEK 2"/> <ItemData ItemOID="SV.VISITDY" Value="14"/> <ItemData ItemOID="SV.SVSTDTC" Value="2013-10-07"/> <ItemData ItemOID="SV.SVENDTC" Value="2013-10-07"/> </ItemGroupData>
<ItemGroupData data:ItemGroupDataSeq="521" ItemGroupOID="SV"> <ItemData ItemOID="SV.STUDYID" Value="CDISCPILOT01"/> <ItemData ItemOID="SV.DOMAIN" Value="SV"/> <ItemData ItemOID="SV.USUBJID" Value="01-701-1415"/> <ItemData ItemOID="SV.VISITNUM" Value="5"/> <ItemData ItemOID="SV.VISIT" Value="WEEK 4"/> <ItemData ItemOID="SV.VISITDY" Value="28"/> <ItemData ItemOID="SV.SVSTDTC" Value="2013-10-20"/> <ItemData ItemOID="SV.SVENDTC" Value="2013-10-20"/> </ItemGroupData>
<ItemGroupData data:ItemGroupDataSeq="522" ItemGroupOID="SV"> <ItemData ItemOID="SV.STUDYID" Value="CDISCPILOT01"/> <ItemData ItemOID="SV.DOMAIN" Value="SV"/> <ItemData ItemOID="SV.USUBJID" Value="01-701-1415"/> <ItemData ItemOID="SV.VISITNUM" Value="6"/> <ItemData ItemOID="SV.VISIT" Value="AMBUL ECG REMOVAL"/> <ItemData ItemOID="SV.VISITDY" Value="30"/> <ItemData ItemOID="SV.SVSTDTC" Value="2013-10-22"/> <ItemData ItemOID="SV.SVENDTC" Value="2013-10-22"/> </ItemGroupData>
<ItemGroupData data:ItemGroupDataSeq="523" ItemGroupOID="SV"> <ItemData ItemOID="SV.STUDYID" Value="CDISCPILOT01"/> <ItemData ItemOID="SV.DOMAIN" Value="SV"/> <ItemData ItemOID="SV.USUBJID" Value="01-701-1415"/> <ItemData ItemOID="SV.VISITNUM" Value="7"/> <ItemData ItemOID="SV.VISIT" Value="WEEK 6"/> <ItemData ItemOID="SV.VISITDY" Value="42"/> <ItemData ItemOID="SV.SVSTDTC" Value="2013-11-04"/> <ItemData ItemOID="SV.SVENDTC" Value="2013-11-04"/> </ItemGroupData>
<ItemGroupData data:ItemGroupDataSeq="524" ItemGroupOID="SV"> <ItemData ItemOID="SV.STUDYID" Value="CDISCPILOT01"/> <ItemData ItemOID="SV.DOMAIN" Value="SV"/> <ItemData ItemOID="SV.USUBJID" Value="01-701-1415"/> <ItemData ItemOID="SV.VISITNUM" Value="8"/> <ItemData ItemOID="SV.VISIT" Value="WEEK 8"/> <ItemData ItemOID="SV.VISITDY" Value="56"/> <ItemData ItemOID="SV.SVSTDTC" Value="2013-11-21"/> <ItemData ItemOID="SV.SVENDTC" Value="2013-11-21"/> </ItemGroupData>
<ItemGroupData data:ItemGroupDataSeq="525" ItemGroupOID="SV"> <ItemData ItemOID="SV.STUDYID" Value="CDISCPILOT01"/> <ItemData ItemOID="SV.DOMAIN" Value="SV"/> <ItemData ItemOID="SV.USUBJID" Value="01-701-1415"/> <ItemData ItemOID="SV.VISITNUM" Value="8.1"/> <ItemData ItemOID="SV.VISIT" Value="WEEK 10 (T)"/> <ItemData ItemOID="SV.VISITDY" Value="70"/> <ItemData ItemOID="SV.SVSTDTC" Value="2013-12-02"/> <ItemData ItemOID="SV.SVENDTC" Value="2013-12-02"/> </ItemGroupData>
<ItemGroupData data:ItemGroupDataSeq="526" ItemGroupOID="SV"> <ItemData ItemOID="SV.STUDYID" Value="CDISCPILOT01"/> <ItemData ItemOID="SV.DOMAIN" Value="SV"/> <ItemData ItemOID="SV.USUBJID" Value="01-701-1415"/> <ItemData ItemOID="SV.VISITNUM" Value="9"/> <ItemData ItemOID="SV.VISIT" Value="WEEK 12"/> <ItemData ItemOID="SV.VISITDY" Value="84"/> <ItemData ItemOID="SV.SVSTDTC" Value="2013-12-21"/> <ItemData ItemOID="SV.SVENDTC" Value="2013-12-21"/> </ItemGroupData>
<ItemGroupData data:ItemGroupDataSeq="527" ItemGroupOID="SV"> <ItemData ItemOID="SV.STUDYID" Value="CDISCPILOT01"/> <ItemData ItemOID="SV.DOMAIN" Value="SV"/> <ItemData ItemOID="SV.USUBJID" Value="01-701-1415"/> <ItemData ItemOID="SV.VISITNUM" Value="9.1"/> <ItemData ItemOID="SV.VISIT" Value="WEEK 14 (T)"/> <ItemData ItemOID="SV.VISITDY" Value="98"/> <ItemData ItemOID="SV.SVSTDTC" Value="2013-12-30"/> <ItemData ItemOID="SV.SVENDTC" Value="2013-12-30"/> </ItemGroupData>
<ItemGroupData data:ItemGroupDataSeq="528" ItemGroupOID="SV"> <ItemData ItemOID="SV.STUDYID" Value="CDISCPILOT01"/> <ItemData ItemOID="SV.DOMAIN" Value="SV"/> <ItemData ItemOID="SV.USUBJID" Value="01-701-1415"/> <ItemData ItemOID="SV.VISITNUM" Value="10"/> <ItemData ItemOID="SV.VISIT" Value="WEEK 16"/> <ItemData ItemOID="SV.VISITDY" Value="112"/> <ItemData ItemOID="SV.SVSTDTC" Value="2014-01-14"/> <ItemData ItemOID="SV.SVENDTC" Value="2014-01-14"/> </ItemGroupData>
<ItemGroupData data:ItemGroupDataSeq="529" ItemGroupOID="SV"> <ItemData ItemOID="SV.STUDYID" Value="CDISCPILOT01"/> <ItemData ItemOID="SV.DOMAIN" Value="SV"/> <ItemData ItemOID="SV.USUBJID" Value="01-701-1415"/> <ItemData ItemOID="SV.VISITNUM" Value="10.1"/> <ItemData ItemOID="SV.VISIT" Value="WEEK 18 (T)"/> <ItemData ItemOID="SV.VISITDY" Value="126"/> <ItemData ItemOID="SV.SVSTDTC" Value="2014-01-27"/> <ItemData ItemOID="SV.SVENDTC" Value="2014-01-27"/> </ItemGroupData>
<ItemGroupData data:ItemGroupDataSeq="530" ItemGroupOID="SV"> <ItemData ItemOID="SV.STUDYID" Value="CDISCPILOT01"/> <ItemData ItemOID="SV.DOMAIN" Value="SV"/> <ItemData ItemOID="SV.USUBJID" Value="01-701-1415"/> <ItemData ItemOID="SV.VISITNUM" Value="11"/> <ItemData ItemOID="SV.VISIT" Value="WEEK 20"/> <ItemData ItemOID="SV.VISITDY" Value="140"/> <ItemData ItemOID="SV.SVSTDTC" Value="2014-02-10"/> <ItemData ItemOID="SV.SVENDTC" Value="2014-02-10"/> </ItemGroupData>
<ItemGroupData data:ItemGroupDataSeq="531" ItemGroupOID="SV"> <ItemData ItemOID="SV.STUDYID" Value="CDISCPILOT01"/> <ItemData ItemOID="SV.DOMAIN" Value="SV"/> <ItemData ItemOID="SV.USUBJID" Value="01-701-1415"/> <ItemData ItemOID="SV.VISITNUM" Value="11.1"/> <ItemData ItemOID="SV.VISIT" Value="WEEK 22 (T)"/> <ItemData ItemOID="SV.VISITDY" Value="154"/> <ItemData ItemOID="SV.SVSTDTC" Value="2014-02-24"/> <ItemData ItemOID="SV.SVENDTC" Value="2014-02-24"/> </ItemGroupData>
<ItemGroupData data:ItemGroupDataSeq="532" ItemGroupOID="SV"> <ItemData ItemOID="SV.STUDYID" Value="CDISCPILOT01"/> <ItemData ItemOID="SV.DOMAIN" Value="SV"/> <ItemData ItemOID="SV.USUBJID" Value="01-701-1415"/> <ItemData ItemOID="SV.VISITNUM" Value="12"/> <ItemData ItemOID="SV.VISIT" Value="WEEK 24"/> <ItemData ItemOID="SV.VISITDY" Value="168"/> <ItemData ItemOID="SV.SVSTDTC" Value="2014-03-10"/> <ItemData ItemOID="SV.SVENDTC" Value="2014-03-10"/> </ItemGroupData>
<ItemGroupData data:ItemGroupDataSeq="533" ItemGroupOID="SV"> <ItemData ItemOID="SV.STUDYID" Value="CDISCPILOT01"/> <ItemData ItemOID="SV.DOMAIN" Value="SV"/> <ItemData ItemOID="SV.USUBJID" Value="01-701-1415"/> <ItemData ItemOID="SV.VISITNUM" Value="13"/> <ItemData ItemOID="SV.VISIT" Value="WEEK 26"/> <ItemData ItemOID="SV.VISITDY" Value="182"/> <ItemData ItemOID="SV.SVSTDTC" Value="2014-03-24"/> <ItemData ItemOID="SV.SVENDTC" Value="2014-03-24"/> </ItemGroupData>
<ItemGroupData data:ItemGroupDataSeq="534" ItemGroupOID="SV"> <ItemData ItemOID="SV.STUDYID" Value="CDISCPILOT01"/> <ItemData ItemOID="SV.DOMAIN" Value="SV"/> <ItemData ItemOID="SV.USUBJID" Value="01-701-1429"/> <ItemData ItemOID="SV.VISITNUM" Value="1"/> <ItemData ItemOID="SV.VISIT" Value="SCREENING 1"/> <ItemData ItemOID="SV.VISITDY" Value="-7"/> <ItemData ItemOID="SV.SVSTDTC" Value="2013-02-25"/> <ItemData ItemOID="SV.SVENDTC" Value="2013-02-25"/> </ItemGroupData>
<ItemGroupData data:ItemGroupDataSeq="535" ItemGroupOID="SV"> <ItemData ItemOID="SV.STUDYID" Value="CDISCPILOT01"/> <ItemData ItemOID="SV.DOMAIN" Value="SV"/> <ItemData ItemOID="SV.USUBJID" Value="01-701-1429"/> <ItemData ItemOID="SV.VISITNUM" Value="2"/> <ItemData ItemOID="SV.VISIT" Value="SCREENING 2"/> <ItemData ItemOID="SV.VISITDY" Value="-1"/> <ItemData ItemOID="SV.SVSTDTC" Value="2013-03-17"/> <ItemData ItemOID="SV.SVENDTC" Value="2013-03-17"/> </ItemGroupData>
<ItemGroupData data:ItemGroupDataSeq="536" ItemGroupOID="SV"> <ItemData ItemOID="SV.STUDYID" Value="CDISCPILOT01"/> <ItemData ItemOID="SV.DOMAIN" Value="SV"/> <ItemData ItemOID="SV.USUBJID" Value="01-701-1429"/> <ItemData ItemOID="SV.VISITNUM" Value="3"/> <ItemData ItemOID="SV.VISIT" Value="BASELINE"/> <ItemData ItemOID="SV.VISITDY" Value="1"/> <ItemData ItemOID="SV.SVSTDTC" Value="2013-03-19"/> <ItemData ItemOID="SV.SVENDTC" Value="2013-03-19"/> </ItemGroupData>
<ItemGroupData data:ItemGroupDataSeq="537" ItemGroupOID="SV"> <ItemData ItemOID="SV.STUDYID" Value="CDISCPILOT01"/> <ItemData ItemOID="SV.DOMAIN" Value="SV"/> <ItemData ItemOID="SV.USUBJID" Value="01-701-1429"/> <ItemData ItemOID="SV.VISITNUM" Value="4"/> <ItemData ItemOID="SV.VISIT" Value="WEEK 2"/> <ItemData ItemOID="SV.VISITDY" Value="14"/> <ItemData ItemOID="SV.SVSTDTC" Value="2013-04-02"/> <ItemData ItemOID="SV.SVENDTC" Value="2013-04-02"/> </ItemGroupData>
<ItemGroupData data:ItemGroupDataSeq="538" ItemGroupOID="SV"> <ItemData ItemOID="SV.STUDYID" Value="CDISCPILOT01"/> <ItemData ItemOID="SV.DOMAIN" Value="SV"/> <ItemData ItemOID="SV.USUBJID" Value="01-701-1429"/> <ItemData ItemOID="SV.VISITNUM" Value="5"/> <ItemData ItemOID="SV.VISIT" Value="WEEK 4"/> <ItemData ItemOID="SV.VISITDY" Value="28"/> <ItemData ItemOID="SV.SVSTDTC" Value="2013-04-16"/> <ItemData ItemOID="SV.SVENDTC" Value="2013-04-16"/> </ItemGroupData>
<ItemGroupData data:ItemGroupDataSeq="539" ItemGroupOID="SV"> <ItemData ItemOID="SV.STUDYID" Value="CDISCPILOT01"/> <ItemData ItemOID="SV.DOMAIN" Value="SV"/> <ItemData ItemOID="SV.USUBJID" Value="01-701-1429"/> <ItemData ItemOID="SV.VISITNUM" Value="7"/> <ItemData ItemOID="SV.VISIT" Value="WEEK 6"/> <ItemData ItemOID="SV.VISITDY" Value="42"/> <ItemData ItemOID="SV.SVSTDTC" Value="2013-04-30"/> <ItemData ItemOID="SV.SVENDTC" Value="2013-04-30"/> </ItemGroupData>
<ItemGroupData data:ItemGroupDataSeq="540" ItemGroupOID="SV"> <ItemData ItemOID="SV.STUDYID" Value="CDISCPILOT01"/> <ItemData ItemOID="SV.DOMAIN" Value="SV"/> <ItemData ItemOID="SV.USUBJID" Value="01-701-1440"/> <ItemData ItemOID="SV.VISITNUM" Value="1"/> <ItemData ItemOID="SV.VISIT" Value="SCREENING 1"/> <ItemData ItemOID="SV.VISITDY" Value="-7"/> <ItemData ItemOID="SV.SVSTDTC" Value="2013-07-24"/> <ItemData ItemOID="SV.SVENDTC" Value="2013-07-24"/> </ItemGroupData>
<ItemGroupData data:ItemGroupDataSeq="541" ItemGroupOID="SV"> <ItemData ItemOID="SV.STUDYID" Value="CDISCPILOT01"/> <ItemData ItemOID="SV.DOMAIN" Value="SV"/> <ItemData ItemOID="SV.USUBJID" Value="01-701-1440"/> <ItemData ItemOID="SV.VISITNUM" Value="2"/> <ItemData ItemOID="SV.VISIT" Value="SCREENING 2"/> <ItemData ItemOID="SV.VISITDY" Value="-1"/> <ItemData ItemOID="SV.SVSTDTC" Value="2013-08-06"/> <ItemData ItemOID="SV.SVENDTC" Value="2013-08-06"/> </ItemGroupData>
<ItemGroupData data:ItemGroupDataSeq="542" ItemGroupOID="SV"> <ItemData ItemOID="SV.STUDYID" Value="CDISCPILOT01"/> <ItemData ItemOID="SV.DOMAIN" Value="SV"/> <ItemData ItemOID="SV.USUBJID" Value="01-701-1440"/> <ItemData ItemOID="SV.VISITNUM" Value="3"/> <ItemData ItemOID="SV.VISIT" Value="BASELINE"/> <ItemData ItemOID="SV.VISITDY" Value="1"/> <ItemData ItemOID="SV.SVSTDTC" Value="2013-08-08"/> <ItemData ItemOID="SV.SVENDTC" Value="2013-08-08"/> </ItemGroupData>
<ItemGroupData data:ItemGroupDataSeq="543" ItemGroupOID="SV"> <ItemData ItemOID="SV.STUDYID" Value="CDISCPILOT01"/> <ItemData ItemOID="SV.DOMAIN" Value="SV"/> <ItemData ItemOID="SV.USUBJID" Value="01-701-1440"/> <ItemData ItemOID="SV.VISITNUM" Value="3.5"/> <ItemData ItemOID="SV.VISIT" Value="AMBUL ECG PLACEMENT"/> <ItemData ItemOID="SV.VISITDY" Value="13"/> <ItemData ItemOID="SV.SVSTDTC" Value="2013-08-22"/> <ItemData ItemOID="SV.SVENDTC" Value="2013-08-22"/> </ItemGroupData>
<ItemGroupData data:ItemGroupDataSeq="544" ItemGroupOID="SV"> <ItemData ItemOID="SV.STUDYID" Value="CDISCPILOT01"/> <ItemData ItemOID="SV.DOMAIN" Value="SV"/> <ItemData ItemOID="SV.USUBJID" Value="01-701-1440"/> <ItemData ItemOID="SV.VISITNUM" Value="4"/> <ItemData ItemOID="SV.VISIT" Value="WEEK 2"/> <ItemData ItemOID="SV.VISITDY" Value="14"/> <ItemData ItemOID="SV.SVSTDTC" Value="2013-08-23"/> <ItemData ItemOID="SV.SVENDTC" Value="2013-08-23"/> </ItemGroupData>
<ItemGroupData data:ItemGroupDataSeq="545" ItemGroupOID="SV"> <ItemData ItemOID="SV.STUDYID" Value="CDISCPILOT01"/> <ItemData ItemOID="SV.DOMAIN" Value="SV"/> <ItemData ItemOID="SV.USUBJID" Value="01-701-1440"/> <ItemData ItemOID="SV.VISITNUM" Value="5"/> <ItemData ItemOID="SV.VISIT" Value="WEEK 4"/> <ItemData ItemOID="SV.VISITDY" Value="28"/> <ItemData ItemOID="SV.SVSTDTC" Value="2013-09-04"/> <ItemData ItemOID="SV.SVENDTC" Value="2013-09-04"/> </ItemGroupData>
<ItemGroupData data:ItemGroupDataSeq="546" ItemGroupOID="SV"> <ItemData ItemOID="SV.STUDYID" Value="CDISCPILOT01"/> <ItemData ItemOID="SV.DOMAIN" Value="SV"/> <ItemData ItemOID="SV.USUBJID" Value="01-701-1440"/> <ItemData ItemOID="SV.VISITNUM" Value="6"/> <ItemData ItemOID="SV.VISIT" Value="AMBUL ECG REMOVAL"/> <ItemData ItemOID="SV.VISITDY" Value="30"/> <ItemData ItemOID="SV.SVSTDTC" Value="2013-09-06"/> <ItemData ItemOID="SV.SVENDTC" Value="2013-09-06"/> </ItemGroupData>
<ItemGroupData data:ItemGroupDataSeq="547" ItemGroupOID="SV"> <ItemData ItemOID="SV.STUDYID" Value="CDISCPILOT01"/> <ItemData ItemOID="SV.DOMAIN" Value="SV"/> <ItemData ItemOID="SV.USUBJID" Value="01-701-1440"/> <ItemData ItemOID="SV.VISITNUM" Value="7"/> <ItemData ItemOID="SV.VISIT" Value="WEEK 6"/> <ItemData ItemOID="SV.VISITDY" Value="42"/> <ItemData ItemOID="SV.SVSTDTC" Value="2013-09-22"/> <ItemData ItemOID="SV.SVENDTC" Value="2013-09-22"/> </ItemGroupData>
<ItemGroupData data:ItemGroupDataSeq="548" ItemGroupOID="SV"> <ItemData ItemOID="SV.STUDYID" Value="CDISCPILOT01"/> <ItemData ItemOID="SV.DOMAIN" Value="SV"/> <ItemData ItemOID="SV.USUBJID" Value="01-701-1440"/> <ItemData ItemOID="SV.VISITNUM" Value="8"/> <ItemData ItemOID="SV.VISIT" Value="WEEK 8"/> <ItemData ItemOID="SV.VISITDY" Value="56"/> <ItemData ItemOID="SV.SVSTDTC" Value="2013-10-03"/> <ItemData ItemOID="SV.SVENDTC" Value="2013-10-03"/> </ItemGroupData>
<ItemGroupData data:ItemGroupDataSeq="549" ItemGroupOID="SV"> <ItemData ItemOID="SV.STUDYID" Value="CDISCPILOT01"/> <ItemData ItemOID="SV.DOMAIN" Value="SV"/> <ItemData ItemOID="SV.USUBJID" Value="01-701-1440"/> <ItemData ItemOID="SV.VISITNUM" Value="8.1"/> <ItemData ItemOID="SV.VISIT" Value="WEEK 10 (T)"/> <ItemData ItemOID="SV.VISITDY" Value="70"/> <ItemData ItemOID="SV.SVSTDTC" Value="2013-10-17"/> <ItemData ItemOID="SV.SVENDTC" Value="2013-10-17"/> </ItemGroupData>
<ItemGroupData data:ItemGroupDataSeq="550" ItemGroupOID="SV"> <ItemData ItemOID="SV.STUDYID" Value="CDISCPILOT01"/> <ItemData ItemOID="SV.DOMAIN" Value="SV"/> <ItemData ItemOID="SV.USUBJID" Value="01-701-1440"/> <ItemData ItemOID="SV.VISITNUM" Value="9"/> <ItemData ItemOID="SV.VISIT" Value="WEEK 12"/> <ItemData ItemOID="SV.VISITDY" Value="84"/> <ItemData ItemOID="SV.SVSTDTC" Value="2013-10-31"/> <ItemData ItemOID="SV.SVENDTC" Value="2013-10-31"/> </ItemGroupData>
<ItemGroupData data:ItemGroupDataSeq="551" ItemGroupOID="SV"> <ItemData ItemOID="SV.STUDYID" Value="CDISCPILOT01"/> <ItemData ItemOID="SV.DOMAIN" Value="SV"/> <ItemData ItemOID="SV.USUBJID" Value="01-701-1440"/> <ItemData ItemOID="SV.VISITNUM" Value="9.1"/> <ItemData ItemOID="SV.VISIT" Value="WEEK 14 (T)"/> <ItemData ItemOID="SV.VISITDY" Value="98"/> <ItemData ItemOID="SV.SVSTDTC" Value="2013-11-14"/> <ItemData ItemOID="SV.SVENDTC" Value="2013-11-14"/> </ItemGroupData>
<ItemGroupData data:ItemGroupDataSeq="552" ItemGroupOID="SV"> <ItemData ItemOID="SV.STUDYID" Value="CDISCPILOT01"/> <ItemData ItemOID="SV.DOMAIN" Value="SV"/> <ItemData ItemOID="SV.USUBJID" Value="01-701-1440"/> <ItemData ItemOID="SV.VISITNUM" Value="10"/> <ItemData ItemOID="SV.VISIT" Value="WEEK 16"/> <ItemData ItemOID="SV.VISITDY" Value="112"/> <ItemData ItemOID="SV.SVSTDTC" Value="2013-11-27"/> <ItemData ItemOID="SV.SVENDTC" Value="2013-11-27"/> </ItemGroupData>
<ItemGroupData data:ItemGroupDataSeq="553" ItemGroupOID="SV"> <ItemData ItemOID="SV.STUDYID" Value="CDISCPILOT01"/> <ItemData ItemOID="SV.DOMAIN" Value="SV"/> <ItemData ItemOID="SV.USUBJID" Value="01-701-1440"/> <ItemData ItemOID="SV.VISITNUM" Value="10.1"/> <ItemData ItemOID="SV.VISIT" Value="WEEK 18 (T)"/> <ItemData ItemOID="SV.VISITDY" Value="126"/> <ItemData ItemOID="SV.SVSTDTC" Value="2013-12-12"/> <ItemData ItemOID="SV.SVENDTC" Value="2013-12-12"/> </ItemGroupData>
<ItemGroupData data:ItemGroupDataSeq="554" ItemGroupOID="SV"> <ItemData ItemOID="SV.STUDYID" Value="CDISCPILOT01"/> <ItemData ItemOID="SV.DOMAIN" Value="SV"/> <ItemData ItemOID="SV.USUBJID" Value="01-701-1440"/> <ItemData ItemOID="SV.VISITNUM" Value="11"/> <ItemData ItemOID="SV.VISIT" Value="WEEK 20"/> <ItemData ItemOID="SV.VISITDY" Value="140"/> <ItemData ItemOID="SV.SVSTDTC" Value="2013-12-25"/> <ItemData ItemOID="SV.SVENDTC" Value="2013-12-25"/> </ItemGroupData>
<ItemGroupData data:ItemGroupDataSeq="555" ItemGroupOID="SV"> <ItemData ItemOID="SV.STUDYID" Value="CDISCPILOT01"/> <ItemData ItemOID="SV.DOMAIN" Value="SV"/> <ItemData ItemOID="SV.USUBJID" Value="01-701-1440"/> <ItemData ItemOID="SV.VISITNUM" Value="11.1"/> <ItemData ItemOID="SV.VISIT" Value="WEEK 22 (T)"/> <ItemData ItemOID="SV.VISITDY" Value="154"/> <ItemData ItemOID="SV.SVSTDTC" Value="2014-01-08"/> <ItemData ItemOID="SV.SVENDTC" Value="2014-01-08"/> </ItemGroupData>
<ItemGroupData data:ItemGroupDataSeq="556" ItemGroupOID="SV"> <ItemData ItemOID="SV.STUDYID" Value="CDISCPILOT01"/> <ItemData ItemOID="SV.DOMAIN" Value="SV"/> <ItemData ItemOID="SV.USUBJID" Value="01-701-1440"/> <ItemData ItemOID="SV.VISITNUM" Value="12"/> <ItemData ItemOID="SV.VISIT" Value="WEEK 24"/> <ItemData ItemOID="SV.VISITDY" Value="168"/> <ItemData ItemOID="SV.SVSTDTC" Value="2014-01-22"/> <ItemData ItemOID="SV.SVENDTC" Value="2014-01-22"/> </ItemGroupData>
<ItemGroupData data:ItemGroupDataSeq="557" ItemGroupOID="SV"> <ItemData ItemOID="SV.STUDYID" Value="CDISCPILOT01"/> <ItemData ItemOID="SV.DOMAIN" Value="SV"/> <ItemData ItemOID="SV.USUBJID" Value="01-701-1440"/> <ItemData ItemOID="SV.VISITNUM" Value="13"/> <ItemData ItemOID="SV.VISIT" Value="WEEK 26"/> <ItemData ItemOID="SV.VISITDY" Value="182"/> <ItemData ItemOID="SV.SVSTDTC" Value="2014-02-05"/> <ItemData ItemOID="SV.SVENDTC" Value="2014-02-05"/> </ItemGroupData>
<ItemGroupData data:ItemGroupDataSeq="558" ItemGroupOID="SV"> <ItemData ItemOID="SV.STUDYID" Value="CDISCPILOT01"/> <ItemData ItemOID="SV.DOMAIN" Value="SV"/> <ItemData ItemOID="SV.USUBJID" Value="01-701-1442"/> <ItemData ItemOID="SV.VISITNUM" Value="1"/> <ItemData ItemOID="SV.VISIT" Value="SCREENING 1"/> <ItemData ItemOID="SV.VISITDY" Value="-7"/> <ItemData ItemOID="SV.SVSTDTC" Value="2013-10-17"/> <ItemData ItemOID="SV.SVENDTC" Value="2013-10-17"/> </ItemGroupData>
<ItemGroupData data:ItemGroupDataSeq="559" ItemGroupOID="SV"> <ItemData ItemOID="SV.STUDYID" Value="CDISCPILOT01"/> <ItemData ItemOID="SV.DOMAIN" Value="SV"/> <ItemData ItemOID="SV.USUBJID" Value="01-701-1442"/> <ItemData ItemOID="SV.VISITNUM" Value="2"/> <ItemData ItemOID="SV.VISIT" Value="SCREENING 2"/> <ItemData ItemOID="SV.VISITDY" Value="-1"/> <ItemData ItemOID="SV.SVSTDTC" Value="2013-10-24"/> <ItemData ItemOID="SV.SVENDTC" Value="2013-10-24"/> </ItemGroupData>
<ItemGroupData data:ItemGroupDataSeq="560" ItemGroupOID="SV"> <ItemData ItemOID="SV.STUDYID" Value="CDISCPILOT01"/> <ItemData ItemOID="SV.DOMAIN" Value="SV"/> <ItemData ItemOID="SV.USUBJID" Value="01-701-1442"/> <ItemData ItemOID="SV.VISITNUM" Value="3"/> <ItemData ItemOID="SV.VISIT" Value="BASELINE"/> <ItemData ItemOID="SV.VISITDY" Value="1"/> <ItemData ItemOID="SV.SVSTDTC" Value="2013-10-26"/> <ItemData ItemOID="SV.SVENDTC" Value="2013-10-26"/> </ItemGroupData>
<ItemGroupData data:ItemGroupDataSeq="561" ItemGroupOID="SV"> <ItemData ItemOID="SV.STUDYID" Value="CDISCPILOT01"/> <ItemData ItemOID="SV.DOMAIN" Value="SV"/> <ItemData ItemOID="SV.USUBJID" Value="01-701-1442"/> <ItemData ItemOID="SV.VISITNUM" Value="3.5"/> <ItemData ItemOID="SV.VISIT" Value="AMBUL ECG PLACEMENT"/> <ItemData ItemOID="SV.VISITDY" Value="13"/> <ItemData ItemOID="SV.SVSTDTC" Value="2013-11-08"/> <ItemData ItemOID="SV.SVENDTC" Value="2013-11-08"/> </ItemGroupData>
<ItemGroupData data:ItemGroupDataSeq="562" ItemGroupOID="SV"> <ItemData ItemOID="SV.STUDYID" Value="CDISCPILOT01"/> <ItemData ItemOID="SV.DOMAIN" Value="SV"/> <ItemData ItemOID="SV.USUBJID" Value="01-701-1442"/> <ItemData ItemOID="SV.VISITNUM" Value="4"/> <ItemData ItemOID="SV.VISIT" Value="WEEK 2"/> <ItemData ItemOID="SV.VISITDY" Value="14"/> <ItemData ItemOID="SV.SVSTDTC" Value="2013-11-09"/> <ItemData ItemOID="SV.SVENDTC" Value="2013-11-09"/> </ItemGroupData>
<ItemGroupData data:ItemGroupDataSeq="563" ItemGroupOID="SV"> <ItemData ItemOID="SV.STUDYID" Value="CDISCPILOT01"/> <ItemData ItemOID="SV.DOMAIN" Value="SV"/> <ItemData ItemOID="SV.USUBJID" Value="01-701-1442"/> <ItemData ItemOID="SV.VISITNUM" Value="5"/> <ItemData ItemOID="SV.VISIT" Value="WEEK 4"/> <ItemData ItemOID="SV.VISITDY" Value="28"/> <ItemData ItemOID="SV.SVSTDTC" Value="2013-11-23"/> <ItemData ItemOID="SV.SVENDTC" Value="2013-11-23"/> </ItemGroupData>
<ItemGroupData data:ItemGroupDataSeq="564" ItemGroupOID="SV"> <ItemData ItemOID="SV.STUDYID" Value="CDISCPILOT01"/> <ItemData ItemOID="SV.DOMAIN" Value="SV"/> <ItemData ItemOID="SV.USUBJID" Value="01-701-1442"/> <ItemData ItemOID="SV.VISITNUM" Value="6"/> <ItemData ItemOID="SV.VISIT" Value="AMBUL ECG REMOVAL"/> <ItemData ItemOID="SV.VISITDY" Value="30"/> <ItemData ItemOID="SV.SVSTDTC" Value="2013-11-25"/> <ItemData ItemOID="SV.SVENDTC" Value="2013-11-25"/> </ItemGroupData>
<ItemGroupData data:ItemGroupDataSeq="565" ItemGroupOID="SV"> <ItemData ItemOID="SV.STUDYID" Value="CDISCPILOT01"/> <ItemData ItemOID="SV.DOMAIN" Value="SV"/> <ItemData ItemOID="SV.USUBJID" Value="01-701-1442"/> <ItemData ItemOID="SV.VISITNUM" Value="7"/> <ItemData ItemOID="SV.VISIT" Value="WEEK 6"/> <ItemData ItemOID="SV.VISITDY" Value="42"/> <ItemData ItemOID="SV.SVSTDTC" Value="2013-12-07"/> <ItemData ItemOID="SV.SVENDTC" Value="2013-12-07"/> </ItemGroupData>
<ItemGroupData data:ItemGroupDataSeq="566" ItemGroupOID="SV"> <ItemData ItemOID="SV.STUDYID" Value="CDISCPILOT01"/> <ItemData ItemOID="SV.DOMAIN" Value="SV"/> <ItemData ItemOID="SV.USUBJID" Value="01-701-1442"/> <ItemData ItemOID="SV.VISITNUM" Value="8"/> <ItemData ItemOID="SV.VISIT" Value="WEEK 8"/> <ItemData ItemOID="SV.VISITDY" Value="56"/> <ItemData ItemOID="SV.SVSTDTC" Value="2013-12-26"/> <ItemData ItemOID="SV.SVENDTC" Value="2013-12-26"/> </ItemGroupData>
<ItemGroupData data:ItemGroupDataSeq="567" ItemGroupOID="SV"> <ItemData ItemOID="SV.STUDYID" Value="CDISCPILOT01"/> <ItemData ItemOID="SV.DOMAIN" Value="SV"/> <ItemData ItemOID="SV.USUBJID" Value="01-701-1442"/> <ItemData ItemOID="SV.VISITNUM" Value="8.1"/> <ItemData ItemOID="SV.VISIT" Value="WEEK 10 (T)"/> <ItemData ItemOID="SV.VISITDY" Value="70"/> <ItemData ItemOID="SV.SVSTDTC" Value="2014-01-04"/> <ItemData ItemOID="SV.SVENDTC" Value="2014-01-04"/> </ItemGroupData>
<ItemGroupData data:ItemGroupDataSeq="568" ItemGroupOID="SV"> <ItemData ItemOID="SV.STUDYID" Value="CDISCPILOT01"/> <ItemData ItemOID="SV.DOMAIN" Value="SV"/> <ItemData ItemOID="SV.USUBJID" Value="01-701-1442"/> <ItemData ItemOID="SV.VISITNUM" Value="9"/> <ItemData ItemOID="SV.VISIT" Value="WEEK 12"/> <ItemData ItemOID="SV.VISITDY" Value="84"/> <ItemData ItemOID="SV.SVSTDTC" Value="2014-01-18"/> <ItemData ItemOID="SV.SVENDTC" Value="2014-01-18"/> </ItemGroupData>
<ItemGroupData data:ItemGroupDataSeq="569" ItemGroupOID="SV"> <ItemData ItemOID="SV.STUDYID" Value="CDISCPILOT01"/> <ItemData ItemOID="SV.DOMAIN" Value="SV"/> <ItemData ItemOID="SV.USUBJID" Value="01-701-1442"/> <ItemData ItemOID="SV.VISITNUM" Value="9.1"/> <ItemData ItemOID="SV.VISIT" Value="WEEK 14 (T)"/> <ItemData ItemOID="SV.VISITDY" Value="98"/> <ItemData ItemOID="SV.SVSTDTC" Value="2014-02-01"/> <ItemData ItemOID="SV.SVENDTC" Value="2014-02-01"/> </ItemGroupData>
<ItemGroupData data:ItemGroupDataSeq="570" ItemGroupOID="SV"> <ItemData ItemOID="SV.STUDYID" Value="CDISCPILOT01"/> <ItemData ItemOID="SV.DOMAIN" Value="SV"/> <ItemData ItemOID="SV.USUBJID" Value="01-701-1442"/> <ItemData ItemOID="SV.VISITNUM" Value="10"/> <ItemData ItemOID="SV.VISIT" Value="WEEK 16"/> <ItemData ItemOID="SV.VISITDY" Value="112"/> <ItemData ItemOID="SV.SVSTDTC" Value="2014-02-15"/> <ItemData ItemOID="SV.SVENDTC" Value="2014-02-15"/> </ItemGroupData>
<ItemGroupData data:ItemGroupDataSeq="571" ItemGroupOID="SV"> <ItemData ItemOID="SV.STUDYID" Value="CDISCPILOT01"/> <ItemData ItemOID="SV.DOMAIN" Value="SV"/> <ItemData ItemOID="SV.USUBJID" Value="01-701-1442"/> <ItemData ItemOID="SV.VISITNUM" Value="10.1"/> <ItemData ItemOID="SV.VISIT" Value="WEEK 18 (T)"/> <ItemData ItemOID="SV.VISITDY" Value="126"/> <ItemData ItemOID="SV.SVSTDTC" Value="2014-03-01"/> <ItemData ItemOID="SV.SVENDTC" Value="2014-03-01"/> </ItemGroupData>
<ItemGroupData data:ItemGroupDataSeq="572" ItemGroupOID="SV"> <ItemData ItemOID="SV.STUDYID" Value="CDISCPILOT01"/> <ItemData ItemOID="SV.DOMAIN" Value="SV"/> <ItemData ItemOID="SV.USUBJID" Value="01-701-1442"/> <ItemData ItemOID="SV.VISITNUM" Value="11"/> <ItemData ItemOID="SV.VISIT" Value="WEEK 20"/> <ItemData ItemOID="SV.VISITDY" Value="140"/> <ItemData ItemOID="SV.SVSTDTC" Value="2014-03-15"/> <ItemData ItemOID="SV.SVENDTC" Value="2014-03-15"/> </ItemGroupData>
<ItemGroupData data:ItemGroupDataSeq="573" ItemGroupOID="SV"> <ItemData ItemOID="SV.STUDYID" Value="CDISCPILOT01"/> <ItemData ItemOID="SV.DOMAIN" Value="SV"/> <ItemData ItemOID="SV.USUBJID" Value="01-701-1442"/> <ItemData ItemOID="SV.VISITNUM" Value="11.1"/> <ItemData ItemOID="SV.VISIT" Value="WEEK 22 (T)"/> <ItemData ItemOID="SV.VISITDY" Value="154"/> <ItemData ItemOID="SV.SVSTDTC" Value="2014-03-29"/> <ItemData ItemOID="SV.SVENDTC" Value="2014-03-29"/> </ItemGroupData>
<ItemGroupData data:ItemGroupDataSeq="574" ItemGroupOID="SV"> <ItemData ItemOID="SV.STUDYID" Value="CDISCPILOT01"/> <ItemData ItemOID="SV.DOMAIN" Value="SV"/> <ItemData ItemOID="SV.USUBJID" Value="01-701-1442"/> <ItemData ItemOID="SV.VISITNUM" Value="12"/> <ItemData ItemOID="SV.VISIT" Value="WEEK 24"/> <ItemData ItemOID="SV.VISITDY" Value="168"/> <ItemData ItemOID="SV.SVSTDTC" Value="2014-04-17"/> <ItemData ItemOID="SV.SVENDTC" Value="2014-04-17"/> </ItemGroupData>
<ItemGroupData data:ItemGroupDataSeq="575" ItemGroupOID="SV"> <ItemData ItemOID="SV.STUDYID" Value="CDISCPILOT01"/> <ItemData ItemOID="SV.DOMAIN" Value="SV"/> <ItemData ItemOID="SV.USUBJID" Value="01-701-1442"/> <ItemData ItemOID="SV.VISITNUM" Value="13"/> <ItemData ItemOID="SV.VISIT" Value="WEEK 26"/> <ItemData ItemOID="SV.VISITDY" Value="182"/> <ItemData ItemOID="SV.SVSTDTC" Value="2014-04-26"/> <ItemData ItemOID="SV.SVENDTC" Value="2014-04-26"/> </ItemGroupData>
<ItemGroupData data:ItemGroupDataSeq="576" ItemGroupOID="SV"> <ItemData ItemOID="SV.STUDYID" Value="CDISCPILOT01"/> <ItemData ItemOID="SV.DOMAIN" Value="SV"/> <ItemData ItemOID="SV.USUBJID" Value="01-701-1444"/> <ItemData ItemOID="SV.VISITNUM" Value="1"/> <ItemData ItemOID="SV.VISIT" Value="SCREENING 1"/> <ItemData ItemOID="SV.VISITDY" Value="-7"/> <ItemData ItemOID="SV.SVSTDTC" Value="2012-12-31"/> <ItemData ItemOID="SV.SVENDTC" Value="2012-12-31"/> </ItemGroupData>
<ItemGroupData data:ItemGroupDataSeq="577" ItemGroupOID="SV"> <ItemData ItemOID="SV.STUDYID" Value="CDISCPILOT01"/> <ItemData ItemOID="SV.DOMAIN" Value="SV"/> <ItemData ItemOID="SV.USUBJID" Value="01-701-1444"/> <ItemData ItemOID="SV.VISITNUM" Value="2"/> <ItemData ItemOID="SV.VISIT" Value="SCREENING 2"/> <ItemData ItemOID="SV.VISITDY" Value="-1"/> <ItemData ItemOID="SV.SVSTDTC" Value="2013-01-03"/> <ItemData ItemOID="SV.SVENDTC" Value="2013-01-03"/> </ItemGroupData>
<ItemGroupData data:ItemGroupDataSeq="578" ItemGroupOID="SV"> <ItemData ItemOID="SV.STUDYID" Value="CDISCPILOT01"/> <ItemData ItemOID="SV.DOMAIN" Value="SV"/> <ItemData ItemOID="SV.USUBJID" Value="01-701-1444"/> <ItemData ItemOID="SV.VISITNUM" Value="3"/> <ItemData ItemOID="SV.VISIT" Value="BASELINE"/> <ItemData ItemOID="SV.VISITDY" Value="1"/> <ItemData ItemOID="SV.SVSTDTC" Value="2013-01-05"/> <ItemData ItemOID="SV.SVENDTC" Value="2013-01-05"/> </ItemGroupData>
<ItemGroupData data:ItemGroupDataSeq="579" ItemGroupOID="SV"> <ItemData ItemOID="SV.STUDYID" Value="CDISCPILOT01"/> <ItemData ItemOID="SV.DOMAIN" Value="SV"/> <ItemData ItemOID="SV.USUBJID" Value="01-701-1444"/> <ItemData ItemOID="SV.VISITNUM" Value="3.5"/> <ItemData ItemOID="SV.VISIT" Value="AMBUL ECG PLACEMENT"/> <ItemData ItemOID="SV.VISITDY" Value="13"/> <ItemData ItemOID="SV.SVSTDTC" Value="2013-01-17"/> <ItemData ItemOID="SV.SVENDTC" Value="2013-01-17"/> </ItemGroupData>
<ItemGroupData data:ItemGroupDataSeq="580" ItemGroupOID="SV"> <ItemData ItemOID="SV.STUDYID" Value="CDISCPILOT01"/> <ItemData ItemOID="SV.DOMAIN" Value="SV"/> <ItemData ItemOID="SV.USUBJID" Value="01-701-1444"/> <ItemData ItemOID="SV.VISITNUM" Value="4"/> <ItemData ItemOID="SV.VISIT" Value="WEEK 2"/> <ItemData ItemOID="SV.VISITDY" Value="14"/> <ItemData ItemOID="SV.SVSTDTC" Value="2013-01-18"/> <ItemData ItemOID="SV.SVENDTC" Value="2013-01-18"/> </ItemGroupData>
<ItemGroupData data:ItemGroupDataSeq="581" ItemGroupOID="SV"> <ItemData ItemOID="SV.STUDYID" Value="CDISCPILOT01"/> <ItemData ItemOID="SV.DOMAIN" Value="SV"/> <ItemData ItemOID="SV.USUBJID" Value="01-701-1444"/> <ItemData ItemOID="SV.VISITNUM" Value="5"/> <ItemData ItemOID="SV.VISIT" Value="WEEK 4"/> <ItemData ItemOID="SV.VISITDY" Value="28"/> <ItemData ItemOID="SV.SVSTDTC" Value="2013-01-31"/> <ItemData ItemOID="SV.SVENDTC" Value="2013-01-31"/> </ItemGroupData>
<ItemGroupData data:ItemGroupDataSeq="582" ItemGroupOID="SV"> <ItemData ItemOID="SV.STUDYID" Value="CDISCPILOT01"/> <ItemData ItemOID="SV.DOMAIN" Value="SV"/> <ItemData ItemOID="SV.USUBJID" Value="01-701-1444"/> <ItemData ItemOID="SV.VISITNUM" Value="6"/> <ItemData ItemOID="SV.VISIT" Value="AMBUL ECG REMOVAL"/> <ItemData ItemOID="SV.VISITDY" Value="30"/> <ItemData ItemOID="SV.SVSTDTC" Value="2013-02-02"/> <ItemData ItemOID="SV.SVENDTC" Value="2013-02-02"/> </ItemGroupData>
<ItemGroupData data:ItemGroupDataSeq="583" ItemGroupOID="SV"> <ItemData ItemOID="SV.STUDYID" Value="CDISCPILOT01"/> <ItemData ItemOID="SV.DOMAIN" Value="SV"/> <ItemData ItemOID="SV.USUBJID" Value="01-701-1444"/> <ItemData ItemOID="SV.VISITNUM" Value="7"/> <ItemData ItemOID="SV.VISIT" Value="WEEK 6"/> <ItemData ItemOID="SV.VISITDY" Value="42"/> <ItemData ItemOID="SV.SVSTDTC" Value="2013-02-13"/> <ItemData ItemOID="SV.SVENDTC" Value="2013-02-13"/> </ItemGroupData>
<ItemGroupData data:ItemGroupDataSeq="584" ItemGroupOID="SV"> <ItemData ItemOID="SV.STUDYID" Value="CDISCPILOT01"/> <ItemData ItemOID="SV.DOMAIN" Value="SV"/> <ItemData ItemOID="SV.USUBJID" Value="01-701-1444"/> <ItemData ItemOID="SV.VISITNUM" Value="101"/> <ItemData ItemOID="SV.VISIT" Value="AE FOLLOW-UP"/> <ItemData ItemOID="SV.SVSTDTC" Value="2013-06-20"/> <ItemData ItemOID="SV.SVENDTC" Value="2013-06-20"/> </ItemGroupData>
<ItemGroupData data:ItemGroupDataSeq="585" ItemGroupOID="SV"> <ItemData ItemOID="SV.STUDYID" Value="CDISCPILOT01"/> <ItemData ItemOID="SV.DOMAIN" Value="SV"/> <ItemData ItemOID="SV.USUBJID" Value="01-701-1444"/> <ItemData ItemOID="SV.VISITNUM" Value="201"/> <ItemData ItemOID="SV.VISIT" Value="RETRIEVAL"/> <ItemData ItemOID="SV.VISITDY" Value="168"/> <ItemData ItemOID="SV.SVSTDTC" Value="2013-06-20"/> <ItemData ItemOID="SV.SVENDTC" Value="2013-06-20"/> </ItemGroupData>
<ItemGroupData data:ItemGroupDataSeq="586" ItemGroupOID="SV"> <ItemData ItemOID="SV.STUDYID" Value="CDISCPILOT01"/> <ItemData ItemOID="SV.DOMAIN" Value="SV"/> <ItemData ItemOID="SV.USUBJID" Value="01-702-1082"/> <ItemData ItemOID="SV.VISITNUM" Value="1"/> <ItemData ItemOID="SV.VISIT" Value="SCREENING 1"/> <ItemData ItemOID="SV.VISITDY" Value="-7"/> <ItemData ItemOID="SV.SVSTDTC" Value="2013-07-03"/> <ItemData ItemOID="SV.SVENDTC" Value="2013-07-03"/> </ItemGroupData>
<ItemGroupData data:ItemGroupDataSeq="587" ItemGroupOID="SV"> <ItemData ItemOID="SV.STUDYID" Value="CDISCPILOT01"/> <ItemData ItemOID="SV.DOMAIN" Value="SV"/> <ItemData ItemOID="SV.USUBJID" Value="01-702-1082"/> <ItemData ItemOID="SV.VISITNUM" Value="1.1"/> <ItemData ItemOID="SV.VISIT" Value="UNSCHEDULED 1.1"/> <ItemData ItemOID="SV.SVSTDTC" Value="2013-07-24"/> <ItemData ItemOID="SV.SVENDTC" Value="2013-07-24"/> </ItemGroupData>
<ItemGroupData data:ItemGroupDataSeq="588" ItemGroupOID="SV"> <ItemData ItemOID="SV.STUDYID" Value="CDISCPILOT01"/> <ItemData ItemOID="SV.DOMAIN" Value="SV"/> <ItemData ItemOID="SV.USUBJID" Value="01-702-1082"/> <ItemData ItemOID="SV.VISITNUM" Value="2"/> <ItemData ItemOID="SV.VISIT" Value="SCREENING 2"/> <ItemData ItemOID="SV.VISITDY" Value="-1"/> <ItemData ItemOID="SV.SVSTDTC" Value="2013-07-24"/> <ItemData ItemOID="SV.SVENDTC" Value="2013-07-24"/> </ItemGroupData>