<ItemGroupData data:ItemGroupDataSeq="101" ItemGroupOID="SV"> <ItemData ItemOID="SV.STUDYID" Value="CDISCPILOT01"/> <ItemData ItemOID="SV.DOMAIN" Value="SV"/> <ItemData ItemOID="SV.USUBJID" Value="01-701-1115"/> <ItemData ItemOID="SV.VISITNUM" Value="1"/> <ItemData ItemOID="SV.VISIT" Value="SCREENING 1"/> <ItemData ItemOID="SV.VISITDY" Value="-7"/> <ItemData ItemOID="SV.SVSTDTC" Value="2012-11-23"/> <ItemData ItemOID="SV.SVENDTC" Value="2012-11-23"/> </ItemGroupData>
<ItemGroupData data:ItemGroupDataSeq="102" ItemGroupOID="SV"> <ItemData ItemOID="SV.STUDYID" Value="CDISCPILOT01"/> <ItemData ItemOID="SV.DOMAIN" Value="SV"/> <ItemData ItemOID="SV.USUBJID" Value="01-701-1115"/> <ItemData ItemOID="SV.VISITNUM" Value="2"/> <ItemData ItemOID="SV.VISIT" Value="SCREENING 2"/> <ItemData ItemOID="SV.VISITDY" Value="-1"/> <ItemData ItemOID="SV.SVSTDTC" Value="2012-11-28"/> <ItemData ItemOID="SV.SVENDTC" Value="2012-11-28"/> </ItemGroupData>
<ItemGroupData data:ItemGroupDataSeq="103" ItemGroupOID="SV"> <ItemData ItemOID="SV.STUDYID" Value="CDISCPILOT01"/> <ItemData ItemOID="SV.DOMAIN" Value="SV"/> <ItemData ItemOID="SV.USUBJID" Value="01-701-1115"/> <ItemData ItemOID="SV.VISITNUM" Value="3"/> <ItemData ItemOID="SV.VISIT" Value="BASELINE"/> <ItemData ItemOID="SV.VISITDY" Value="1"/> <ItemData ItemOID="SV.SVSTDTC" Value="2012-11-30"/> <ItemData ItemOID="SV.SVENDTC" Value="2012-11-30"/> </ItemGroupData>
<ItemGroupData data:ItemGroupDataSeq="104" ItemGroupOID="SV"> <ItemData ItemOID="SV.STUDYID" Value="CDISCPILOT01"/> <ItemData ItemOID="SV.DOMAIN" Value="SV"/> <ItemData ItemOID="SV.USUBJID" Value="01-701-1115"/> <ItemData ItemOID="SV.VISITNUM" Value="3.5"/> <ItemData ItemOID="SV.VISIT" Value="AMBUL ECG PLACEMENT"/> <ItemData ItemOID="SV.VISITDY" Value="13"/> <ItemData ItemOID="SV.SVSTDTC" Value="2012-12-12"/> <ItemData ItemOID="SV.SVENDTC" Value="2012-12-12"/> </ItemGroupData>
<ItemGroupData data:ItemGroupDataSeq="105" ItemGroupOID="SV"> <ItemData ItemOID="SV.STUDYID" Value="CDISCPILOT01"/> <ItemData ItemOID="SV.DOMAIN" Value="SV"/> <ItemData ItemOID="SV.USUBJID" Value="01-701-1115"/> <ItemData ItemOID="SV.VISITNUM" Value="4"/> <ItemData ItemOID="SV.VISIT" Value="WEEK 2"/> <ItemData ItemOID="SV.VISITDY" Value="14"/> <ItemData ItemOID="SV.SVSTDTC" Value="2012-12-13"/> <ItemData ItemOID="SV.SVENDTC" Value="2012-12-13"/> </ItemGroupData>
<ItemGroupData data:ItemGroupDataSeq="106" ItemGroupOID="SV"> <ItemData ItemOID="SV.STUDYID" Value="CDISCPILOT01"/> <ItemData ItemOID="SV.DOMAIN" Value="SV"/> <ItemData ItemOID="SV.USUBJID" Value="01-701-1115"/> <ItemData ItemOID="SV.VISITNUM" Value="5"/> <ItemData ItemOID="SV.VISIT" Value="WEEK 4"/> <ItemData ItemOID="SV.VISITDY" Value="28"/> <ItemData ItemOID="SV.SVSTDTC" Value="2012-12-26"/> <ItemData ItemOID="SV.SVENDTC" Value="2012-12-26"/> </ItemGroupData>
<ItemGroupData data:ItemGroupDataSeq="107" ItemGroupOID="SV"> <ItemData ItemOID="SV.STUDYID" Value="CDISCPILOT01"/> <ItemData ItemOID="SV.DOMAIN" Value="SV"/> <ItemData ItemOID="SV.USUBJID" Value="01-701-1115"/> <ItemData ItemOID="SV.VISITNUM" Value="5.1"/> <ItemData ItemOID="SV.VISIT" Value="UNSCHEDULED 5.1"/> <ItemData ItemOID="SV.SVSTDTC" Value="2012-12-28"/> <ItemData ItemOID="SV.SVENDTC" Value="2012-12-28"/> </ItemGroupData>
<ItemGroupData data:ItemGroupDataSeq="108" ItemGroupOID="SV"> <ItemData ItemOID="SV.STUDYID" Value="CDISCPILOT01"/> <ItemData ItemOID="SV.DOMAIN" Value="SV"/> <ItemData ItemOID="SV.USUBJID" Value="01-701-1115"/> <ItemData ItemOID="SV.VISITNUM" Value="6"/> <ItemData ItemOID="SV.VISIT" Value="AMBUL ECG REMOVAL"/> <ItemData ItemOID="SV.VISITDY" Value="30"/> <ItemData ItemOID="SV.SVSTDTC" Value="2012-12-28"/> <ItemData ItemOID="SV.SVENDTC" Value="2012-12-28"/> </ItemGroupData>
<ItemGroupData data:ItemGroupDataSeq="109" ItemGroupOID="SV"> <ItemData ItemOID="SV.STUDYID" Value="CDISCPILOT01"/> <ItemData ItemOID="SV.DOMAIN" Value="SV"/> <ItemData ItemOID="SV.USUBJID" Value="01-701-1115"/> <ItemData ItemOID="SV.VISITNUM" Value="7"/> <ItemData ItemOID="SV.VISIT" Value="WEEK 6"/> <ItemData ItemOID="SV.VISITDY" Value="42"/> <ItemData ItemOID="SV.SVSTDTC" Value="2013-01-10"/> <ItemData ItemOID="SV.SVENDTC" Value="2013-01-10"/> </ItemGroupData>
<ItemGroupData data:ItemGroupDataSeq="110" ItemGroupOID="SV"> <ItemData ItemOID="SV.STUDYID" Value="CDISCPILOT01"/> <ItemData ItemOID="SV.DOMAIN" Value="SV"/> <ItemData ItemOID="SV.USUBJID" Value="01-701-1115"/> <ItemData ItemOID="SV.VISITNUM" Value="8"/> <ItemData ItemOID="SV.VISIT" Value="WEEK 8"/> <ItemData ItemOID="SV.VISITDY" Value="56"/> <ItemData ItemOID="SV.SVSTDTC" Value="2013-01-23"/> <ItemData ItemOID="SV.SVENDTC" Value="2013-01-23"/> </ItemGroupData>
<ItemGroupData data:ItemGroupDataSeq="111" ItemGroupOID="SV"> <ItemData ItemOID="SV.STUDYID" Value="CDISCPILOT01"/> <ItemData ItemOID="SV.DOMAIN" Value="SV"/> <ItemData ItemOID="SV.USUBJID" Value="01-701-1115"/> <ItemData ItemOID="SV.VISITNUM" Value="101"/> <ItemData ItemOID="SV.VISIT" Value="AE FOLLOW-UP"/> <ItemData ItemOID="SV.SVSTDTC" Value="2013-02-14"/> <ItemData ItemOID="SV.SVENDTC" Value="2013-02-14"/> </ItemGroupData>
<ItemGroupData data:ItemGroupDataSeq="112" ItemGroupOID="SV"> <ItemData ItemOID="SV.STUDYID" Value="CDISCPILOT01"/> <ItemData ItemOID="SV.DOMAIN" Value="SV"/> <ItemData ItemOID="SV.USUBJID" Value="01-701-1115"/> <ItemData ItemOID="SV.VISITNUM" Value="201"/> <ItemData ItemOID="SV.VISIT" Value="RETRIEVAL"/> <ItemData ItemOID="SV.VISITDY" Value="168"/> <ItemData ItemOID="SV.SVSTDTC" Value="2013-05-20"/> <ItemData ItemOID="SV.SVENDTC" Value="2013-05-20"/> </ItemGroupData>
<ItemGroupData data:ItemGroupDataSeq="113" ItemGroupOID="SV"> <ItemData ItemOID="SV.STUDYID" Value="CDISCPILOT01"/> <ItemData ItemOID="SV.DOMAIN" Value="SV"/> <ItemData ItemOID="SV.USUBJID" Value="01-701-1118"/> <ItemData ItemOID="SV.VISITNUM" Value="1"/> <ItemData ItemOID="SV.VISIT" Value="SCREENING 1"/> <ItemData ItemOID="SV.VISITDY" Value="-7"/> <ItemData ItemOID="SV.SVSTDTC" Value="2014-02-27"/> <ItemData ItemOID="SV.SVENDTC" Value="2014-02-27"/> </ItemGroupData>
<ItemGroupData data:ItemGroupDataSeq="114" ItemGroupOID="SV"> <ItemData ItemOID="SV.STUDYID" Value="CDISCPILOT01"/> <ItemData ItemOID="SV.DOMAIN" Value="SV"/> <ItemData ItemOID="SV.USUBJID" Value="01-701-1118"/> <ItemData ItemOID="SV.VISITNUM" Value="2"/> <ItemData ItemOID="SV.VISIT" Value="SCREENING 2"/> <ItemData ItemOID="SV.VISITDY" Value="-1"/> <ItemData ItemOID="SV.SVSTDTC" Value="2014-03-10"/> <ItemData ItemOID="SV.SVENDTC" Value="2014-03-10"/> </ItemGroupData>
<ItemGroupData data:ItemGroupDataSeq="115" ItemGroupOID="SV"> <ItemData ItemOID="SV.STUDYID" Value="CDISCPILOT01"/> <ItemData ItemOID="SV.DOMAIN" Value="SV"/> <ItemData ItemOID="SV.USUBJID" Value="01-701-1118"/> <ItemData ItemOID="SV.VISITNUM" Value="3"/> <ItemData ItemOID="SV.VISIT" Value="BASELINE"/> <ItemData ItemOID="SV.VISITDY" Value="1"/> <ItemData ItemOID="SV.SVSTDTC" Value="2014-03-12"/> <ItemData ItemOID="SV.SVENDTC" Value="2014-03-12"/> </ItemGroupData>
<ItemGroupData data:ItemGroupDataSeq="116" ItemGroupOID="SV"> <ItemData ItemOID="SV.STUDYID" Value="CDISCPILOT01"/> <ItemData ItemOID="SV.DOMAIN" Value="SV"/> <ItemData ItemOID="SV.USUBJID" Value="01-701-1118"/> <ItemData ItemOID="SV.VISITNUM" Value="3.5"/> <ItemData ItemOID="SV.VISIT" Value="AMBUL ECG PLACEMENT"/> <ItemData ItemOID="SV.VISITDY" Value="13"/> <ItemData ItemOID="SV.SVSTDTC" Value="2014-03-25"/> <ItemData ItemOID="SV.SVENDTC" Value="2014-03-25"/> </ItemGroupData>
<ItemGroupData data:ItemGroupDataSeq="117" ItemGroupOID="SV"> <ItemData ItemOID="SV.STUDYID" Value="CDISCPILOT01"/> <ItemData ItemOID="SV.DOMAIN" Value="SV"/> <ItemData ItemOID="SV.USUBJID" Value="01-701-1118"/> <ItemData ItemOID="SV.VISITNUM" Value="4"/> <ItemData ItemOID="SV.VISIT" Value="WEEK 2"/> <ItemData ItemOID="SV.VISITDY" Value="14"/> <ItemData ItemOID="SV.SVSTDTC" Value="2014-03-26"/> <ItemData ItemOID="SV.SVENDTC" Value="2014-03-26"/> </ItemGroupData>
<ItemGroupData data:ItemGroupDataSeq="118" ItemGroupOID="SV"> <ItemData ItemOID="SV.STUDYID" Value="CDISCPILOT01"/> <ItemData ItemOID="SV.DOMAIN" Value="SV"/> <ItemData ItemOID="SV.USUBJID" Value="01-701-1118"/> <ItemData ItemOID="SV.VISITNUM" Value="5"/> <ItemData ItemOID="SV.VISIT" Value="WEEK 4"/> <ItemData ItemOID="SV.VISITDY" Value="28"/> <ItemData ItemOID="SV.SVSTDTC" Value="2014-04-09"/> <ItemData ItemOID="SV.SVENDTC" Value="2014-04-09"/> </ItemGroupData>
<ItemGroupData data:ItemGroupDataSeq="119" ItemGroupOID="SV"> <ItemData ItemOID="SV.STUDYID" Value="CDISCPILOT01"/> <ItemData ItemOID="SV.DOMAIN" Value="SV"/> <ItemData ItemOID="SV.USUBJID" Value="01-701-1118"/> <ItemData ItemOID="SV.VISITNUM" Value="6"/> <ItemData ItemOID="SV.VISIT" Value="AMBUL ECG REMOVAL"/> <ItemData ItemOID="SV.VISITDY" Value="30"/> <ItemData ItemOID="SV.SVSTDTC" Value="2014-04-11"/> <ItemData ItemOID="SV.SVENDTC" Value="2014-04-11"/> </ItemGroupData>
<ItemGroupData data:ItemGroupDataSeq="120" ItemGroupOID="SV"> <ItemData ItemOID="SV.STUDYID" Value="CDISCPILOT01"/> <ItemData ItemOID="SV.DOMAIN" Value="SV"/> <ItemData ItemOID="SV.USUBJID" Value="01-701-1118"/> <ItemData ItemOID="SV.VISITNUM" Value="7"/> <ItemData ItemOID="SV.VISIT" Value="WEEK 6"/> <ItemData ItemOID="SV.VISITDY" Value="42"/> <ItemData ItemOID="SV.SVSTDTC" Value="2014-04-23"/> <ItemData ItemOID="SV.SVENDTC" Value="2014-04-23"/> </ItemGroupData>
<ItemGroupData data:ItemGroupDataSeq="121" ItemGroupOID="SV"> <ItemData ItemOID="SV.STUDYID" Value="CDISCPILOT01"/> <ItemData ItemOID="SV.DOMAIN" Value="SV"/> <ItemData ItemOID="SV.USUBJID" Value="01-701-1118"/> <ItemData ItemOID="SV.VISITNUM" Value="8"/> <ItemData ItemOID="SV.VISIT" Value="WEEK 8"/> <ItemData ItemOID="SV.VISITDY" Value="56"/> <ItemData ItemOID="SV.SVSTDTC" Value="2014-05-08"/> <ItemData ItemOID="SV.SVENDTC" Value="2014-05-08"/> </ItemGroupData>
<ItemGroupData data:ItemGroupDataSeq="122" ItemGroupOID="SV"> <ItemData ItemOID="SV.STUDYID" Value="CDISCPILOT01"/> <ItemData ItemOID="SV.DOMAIN" Value="SV"/> <ItemData ItemOID="SV.USUBJID" Value="01-701-1118"/> <ItemData ItemOID="SV.VISITNUM" Value="8.1"/> <ItemData ItemOID="SV.VISIT" Value="WEEK 10 (T)"/> <ItemData ItemOID="SV.VISITDY" Value="70"/> <ItemData ItemOID="SV.SVSTDTC" Value="2014-05-21"/> <ItemData ItemOID="SV.SVENDTC" Value="2014-05-21"/> </ItemGroupData>
<ItemGroupData data:ItemGroupDataSeq="123" ItemGroupOID="SV"> <ItemData ItemOID="SV.STUDYID" Value="CDISCPILOT01"/> <ItemData ItemOID="SV.DOMAIN" Value="SV"/> <ItemData ItemOID="SV.USUBJID" Value="01-701-1118"/> <ItemData ItemOID="SV.VISITNUM" Value="9"/> <ItemData ItemOID="SV.VISIT" Value="WEEK 12"/> <ItemData ItemOID="SV.VISITDY" Value="84"/> <ItemData ItemOID="SV.SVSTDTC" Value="2014-06-05"/> <ItemData ItemOID="SV.SVENDTC" Value="2014-06-05"/> </ItemGroupData>
<ItemGroupData data:ItemGroupDataSeq="124" ItemGroupOID="SV"> <ItemData ItemOID="SV.STUDYID" Value="CDISCPILOT01"/> <ItemData ItemOID="SV.DOMAIN" Value="SV"/> <ItemData ItemOID="SV.USUBJID" Value="01-701-1118"/> <ItemData ItemOID="SV.VISITNUM" Value="9.1"/> <ItemData ItemOID="SV.VISIT" Value="WEEK 14 (T)"/> <ItemData ItemOID="SV.VISITDY" Value="98"/> <ItemData ItemOID="SV.SVSTDTC" Value="2014-06-18"/> <ItemData ItemOID="SV.SVENDTC" Value="2014-06-18"/> </ItemGroupData>
<ItemGroupData data:ItemGroupDataSeq="125" ItemGroupOID="SV"> <ItemData ItemOID="SV.STUDYID" Value="CDISCPILOT01"/> <ItemData ItemOID="SV.DOMAIN" Value="SV"/> <ItemData ItemOID="SV.USUBJID" Value="01-701-1118"/> <ItemData ItemOID="SV.VISITNUM" Value="10"/> <ItemData ItemOID="SV.VISIT" Value="WEEK 16"/> <ItemData ItemOID="SV.VISITDY" Value="112"/> <ItemData ItemOID="SV.SVSTDTC" Value="2014-07-02"/> <ItemData ItemOID="SV.SVENDTC" Value="2014-07-02"/> </ItemGroupData>
<ItemGroupData data:ItemGroupDataSeq="126" ItemGroupOID="SV"> <ItemData ItemOID="SV.STUDYID" Value="CDISCPILOT01"/> <ItemData ItemOID="SV.DOMAIN" Value="SV"/> <ItemData ItemOID="SV.USUBJID" Value="01-701-1118"/> <ItemData ItemOID="SV.VISITNUM" Value="10.1"/> <ItemData ItemOID="SV.VISIT" Value="WEEK 18 (T)"/> <ItemData ItemOID="SV.VISITDY" Value="126"/> <ItemData ItemOID="SV.SVSTDTC" Value="2014-07-16"/> <ItemData ItemOID="SV.SVENDTC" Value="2014-07-16"/> </ItemGroupData>
<ItemGroupData data:ItemGroupDataSeq="127" ItemGroupOID="SV"> <ItemData ItemOID="SV.STUDYID" Value="CDISCPILOT01"/> <ItemData ItemOID="SV.DOMAIN" Value="SV"/> <ItemData ItemOID="SV.USUBJID" Value="01-701-1118"/> <ItemData ItemOID="SV.VISITNUM" Value="11"/> <ItemData ItemOID="SV.VISIT" Value="WEEK 20"/> <ItemData ItemOID="SV.VISITDY" Value="140"/> <ItemData ItemOID="SV.SVSTDTC" Value="2014-07-30"/> <ItemData ItemOID="SV.SVENDTC" Value="2014-07-30"/> </ItemGroupData>
<ItemGroupData data:ItemGroupDataSeq="128" ItemGroupOID="SV"> <ItemData ItemOID="SV.STUDYID" Value="CDISCPILOT01"/> <ItemData ItemOID="SV.DOMAIN" Value="SV"/> <ItemData ItemOID="SV.USUBJID" Value="01-701-1118"/> <ItemData ItemOID="SV.VISITNUM" Value="11.1"/> <ItemData ItemOID="SV.VISIT" Value="WEEK 22 (T)"/> <ItemData ItemOID="SV.VISITDY" Value="154"/> <ItemData ItemOID="SV.SVSTDTC" Value="2014-07-13"/> <ItemData ItemOID="SV.SVENDTC" Value="2014-07-13"/> </ItemGroupData>
<ItemGroupData data:ItemGroupDataSeq="129" ItemGroupOID="SV"> <ItemData ItemOID="SV.STUDYID" Value="CDISCPILOT01"/> <ItemData ItemOID="SV.DOMAIN" Value="SV"/> <ItemData ItemOID="SV.USUBJID" Value="01-701-1118"/> <ItemData ItemOID="SV.VISITNUM" Value="12"/> <ItemData ItemOID="SV.VISIT" Value="WEEK 24"/> <ItemData ItemOID="SV.VISITDY" Value="168"/> <ItemData ItemOID="SV.SVSTDTC" Value="2014-08-27"/> <ItemData ItemOID="SV.SVENDTC" Value="2014-08-27"/> </ItemGroupData>
<ItemGroupData data:ItemGroupDataSeq="130" ItemGroupOID="SV"> <ItemData ItemOID="SV.STUDYID" Value="CDISCPILOT01"/> <ItemData ItemOID="SV.DOMAIN" Value="SV"/> <ItemData ItemOID="SV.USUBJID" Value="01-701-1118"/> <ItemData ItemOID="SV.VISITNUM" Value="13"/> <ItemData ItemOID="SV.VISIT" Value="WEEK 26"/> <ItemData ItemOID="SV.VISITDY" Value="182"/> <ItemData ItemOID="SV.SVSTDTC" Value="2014-09-09"/> <ItemData ItemOID="SV.SVENDTC" Value="2014-09-09"/> </ItemGroupData>
<ItemGroupData data:ItemGroupDataSeq="131" ItemGroupOID="SV"> <ItemData ItemOID="SV.STUDYID" Value="CDISCPILOT01"/> <ItemData ItemOID="SV.DOMAIN" Value="SV"/> <ItemData ItemOID="SV.USUBJID" Value="01-701-1130"/> <ItemData ItemOID="SV.VISITNUM" Value="1"/> <ItemData ItemOID="SV.VISIT" Value="SCREENING 1"/> <ItemData ItemOID="SV.VISITDY" Value="-7"/> <ItemData ItemOID="SV.SVSTDTC" Value="2014-02-09"/> <ItemData ItemOID="SV.SVENDTC" Value="2014-02-09"/> </ItemGroupData>
<ItemGroupData data:ItemGroupDataSeq="132" ItemGroupOID="SV"> <ItemData ItemOID="SV.STUDYID" Value="CDISCPILOT01"/> <ItemData ItemOID="SV.DOMAIN" Value="SV"/> <ItemData ItemOID="SV.USUBJID" Value="01-701-1130"/> <ItemData ItemOID="SV.VISITNUM" Value="2"/> <ItemData ItemOID="SV.VISIT" Value="SCREENING 2"/> <ItemData ItemOID="SV.VISITDY" Value="-1"/> <ItemData ItemOID="SV.SVSTDTC" Value="2014-02-13"/> <ItemData ItemOID="SV.SVENDTC" Value="2014-02-13"/> </ItemGroupData>
<ItemGroupData data:ItemGroupDataSeq="133" ItemGroupOID="SV"> <ItemData ItemOID="SV.STUDYID" Value="CDISCPILOT01"/> <ItemData ItemOID="SV.DOMAIN" Value="SV"/> <ItemData ItemOID="SV.USUBJID" Value="01-701-1130"/> <ItemData ItemOID="SV.VISITNUM" Value="3"/> <ItemData ItemOID="SV.VISIT" Value="BASELINE"/> <ItemData ItemOID="SV.VISITDY" Value="1"/> <ItemData ItemOID="SV.SVSTDTC" Value="2014-02-15"/> <ItemData ItemOID="SV.SVENDTC" Value="2014-02-15"/> </ItemGroupData>
<ItemGroupData data:ItemGroupDataSeq="134" ItemGroupOID="SV"> <ItemData ItemOID="SV.STUDYID" Value="CDISCPILOT01"/> <ItemData ItemOID="SV.DOMAIN" Value="SV"/> <ItemData ItemOID="SV.USUBJID" Value="01-701-1130"/> <ItemData ItemOID="SV.VISITNUM" Value="3.5"/> <ItemData ItemOID="SV.VISIT" Value="AMBUL ECG PLACEMENT"/> <ItemData ItemOID="SV.VISITDY" Value="13"/> <ItemData ItemOID="SV.SVSTDTC" Value="2014-02-28"/> <ItemData ItemOID="SV.SVENDTC" Value="2014-02-28"/> </ItemGroupData>
<ItemGroupData data:ItemGroupDataSeq="135" ItemGroupOID="SV"> <ItemData ItemOID="SV.STUDYID" Value="CDISCPILOT01"/> <ItemData ItemOID="SV.DOMAIN" Value="SV"/> <ItemData ItemOID="SV.USUBJID" Value="01-701-1130"/> <ItemData ItemOID="SV.VISITNUM" Value="4"/> <ItemData ItemOID="SV.VISIT" Value="WEEK 2"/> <ItemData ItemOID="SV.VISITDY" Value="14"/> <ItemData ItemOID="SV.SVSTDTC" Value="2014-03-01"/> <ItemData ItemOID="SV.SVENDTC" Value="2014-03-01"/> </ItemGroupData>
<ItemGroupData data:ItemGroupDataSeq="136" ItemGroupOID="SV"> <ItemData ItemOID="SV.STUDYID" Value="CDISCPILOT01"/> <ItemData ItemOID="SV.DOMAIN" Value="SV"/> <ItemData ItemOID="SV.USUBJID" Value="01-701-1130"/> <ItemData ItemOID="SV.VISITNUM" Value="5"/> <ItemData ItemOID="SV.VISIT" Value="WEEK 4"/> <ItemData ItemOID="SV.VISITDY" Value="28"/> <ItemData ItemOID="SV.SVSTDTC" Value="2014-03-15"/> <ItemData ItemOID="SV.SVENDTC" Value="2014-03-15"/> </ItemGroupData>
<ItemGroupData data:ItemGroupDataSeq="137" ItemGroupOID="SV"> <ItemData ItemOID="SV.STUDYID" Value="CDISCPILOT01"/> <ItemData ItemOID="SV.DOMAIN" Value="SV"/> <ItemData ItemOID="SV.USUBJID" Value="01-701-1130"/> <ItemData ItemOID="SV.VISITNUM" Value="6"/> <ItemData ItemOID="SV.VISIT" Value="AMBUL ECG REMOVAL"/> <ItemData ItemOID="SV.VISITDY" Value="30"/> <ItemData ItemOID="SV.SVSTDTC" Value="2014-03-17"/> <ItemData ItemOID="SV.SVENDTC" Value="2014-03-17"/> </ItemGroupData>
<ItemGroupData data:ItemGroupDataSeq="138" ItemGroupOID="SV"> <ItemData ItemOID="SV.STUDYID" Value="CDISCPILOT01"/> <ItemData ItemOID="SV.DOMAIN" Value="SV"/> <ItemData ItemOID="SV.USUBJID" Value="01-701-1130"/> <ItemData ItemOID="SV.VISITNUM" Value="7"/> <ItemData ItemOID="SV.VISIT" Value="WEEK 6"/> <ItemData ItemOID="SV.VISITDY" Value="42"/> <ItemData ItemOID="SV.SVSTDTC" Value="2014-03-29"/> <ItemData ItemOID="SV.SVENDTC" Value="2014-03-29"/> </ItemGroupData>
<ItemGroupData data:ItemGroupDataSeq="139" ItemGroupOID="SV"> <ItemData ItemOID="SV.STUDYID" Value="CDISCPILOT01"/> <ItemData ItemOID="SV.DOMAIN" Value="SV"/> <ItemData ItemOID="SV.USUBJID" Value="01-701-1130"/> <ItemData ItemOID="SV.VISITNUM" Value="8"/> <ItemData ItemOID="SV.VISIT" Value="WEEK 8"/> <ItemData ItemOID="SV.VISITDY" Value="56"/> <ItemData ItemOID="SV.SVSTDTC" Value="2014-04-12"/> <ItemData ItemOID="SV.SVENDTC" Value="2014-04-12"/> </ItemGroupData>
<ItemGroupData data:ItemGroupDataSeq="140" ItemGroupOID="SV"> <ItemData ItemOID="SV.STUDYID" Value="CDISCPILOT01"/> <ItemData ItemOID="SV.DOMAIN" Value="SV"/> <ItemData ItemOID="SV.USUBJID" Value="01-701-1130"/> <ItemData ItemOID="SV.VISITNUM" Value="8.1"/> <ItemData ItemOID="SV.VISIT" Value="WEEK 10 (T)"/> <ItemData ItemOID="SV.VISITDY" Value="70"/> <ItemData ItemOID="SV.SVSTDTC" Value="2014-04-26"/> <ItemData ItemOID="SV.SVENDTC" Value="2014-04-26"/> </ItemGroupData>
<ItemGroupData data:ItemGroupDataSeq="141" ItemGroupOID="SV"> <ItemData ItemOID="SV.STUDYID" Value="CDISCPILOT01"/> <ItemData ItemOID="SV.DOMAIN" Value="SV"/> <ItemData ItemOID="SV.USUBJID" Value="01-701-1130"/> <ItemData ItemOID="SV.VISITNUM" Value="9"/> <ItemData ItemOID="SV.VISIT" Value="WEEK 12"/> <ItemData ItemOID="SV.VISITDY" Value="84"/> <ItemData ItemOID="SV.SVSTDTC" Value="2014-05-16"/> <ItemData ItemOID="SV.SVENDTC" Value="2014-05-16"/> </ItemGroupData>
<ItemGroupData data:ItemGroupDataSeq="142" ItemGroupOID="SV"> <ItemData ItemOID="SV.STUDYID" Value="CDISCPILOT01"/> <ItemData ItemOID="SV.DOMAIN" Value="SV"/> <ItemData ItemOID="SV.USUBJID" Value="01-701-1130"/> <ItemData ItemOID="SV.VISITNUM" Value="9.1"/> <ItemData ItemOID="SV.VISIT" Value="WEEK 14 (T)"/> <ItemData ItemOID="SV.VISITDY" Value="98"/> <ItemData ItemOID="SV.SVSTDTC" Value="2014-05-24"/> <ItemData ItemOID="SV.SVENDTC" Value="2014-05-24"/> </ItemGroupData>
<ItemGroupData data:ItemGroupDataSeq="143" ItemGroupOID="SV"> <ItemData ItemOID="SV.STUDYID" Value="CDISCPILOT01"/> <ItemData ItemOID="SV.DOMAIN" Value="SV"/> <ItemData ItemOID="SV.USUBJID" Value="01-701-1130"/> <ItemData ItemOID="SV.VISITNUM" Value="10"/> <ItemData ItemOID="SV.VISIT" Value="WEEK 16"/> <ItemData ItemOID="SV.VISITDY" Value="112"/> <ItemData ItemOID="SV.SVSTDTC" Value="2014-06-07"/> <ItemData ItemOID="SV.SVENDTC" Value="2014-06-07"/> </ItemGroupData>
<ItemGroupData data:ItemGroupDataSeq="144" ItemGroupOID="SV"> <ItemData ItemOID="SV.STUDYID" Value="CDISCPILOT01"/> <ItemData ItemOID="SV.DOMAIN" Value="SV"/> <ItemData ItemOID="SV.USUBJID" Value="01-701-1130"/> <ItemData ItemOID="SV.VISITNUM" Value="10.1"/> <ItemData ItemOID="SV.VISIT" Value="WEEK 18 (T)"/> <ItemData ItemOID="SV.VISITDY" Value="126"/> <ItemData ItemOID="SV.SVSTDTC" Value="2014-06-21"/> <ItemData ItemOID="SV.SVENDTC" Value="2014-06-21"/> </ItemGroupData>
<ItemGroupData data:ItemGroupDataSeq="145" ItemGroupOID="SV"> <ItemData ItemOID="SV.STUDYID" Value="CDISCPILOT01"/> <ItemData ItemOID="SV.DOMAIN" Value="SV"/> <ItemData ItemOID="SV.USUBJID" Value="01-701-1130"/> <ItemData ItemOID="SV.VISITNUM" Value="11"/> <ItemData ItemOID="SV.VISIT" Value="WEEK 20"/> <ItemData ItemOID="SV.VISITDY" Value="140"/> <ItemData ItemOID="SV.SVSTDTC" Value="2014-07-02"/> <ItemData ItemOID="SV.SVENDTC" Value="2014-07-02"/> </ItemGroupData>
<ItemGroupData data:ItemGroupDataSeq="146" ItemGroupOID="SV"> <ItemData ItemOID="SV.STUDYID" Value="CDISCPILOT01"/> <ItemData ItemOID="SV.DOMAIN" Value="SV"/> <ItemData ItemOID="SV.USUBJID" Value="01-701-1130"/> <ItemData ItemOID="SV.VISITNUM" Value="11.1"/> <ItemData ItemOID="SV.VISIT" Value="WEEK 22 (T)"/> <ItemData ItemOID="SV.VISITDY" Value="154"/> <ItemData ItemOID="SV.SVSTDTC" Value="2014-07-19"/> <ItemData ItemOID="SV.SVENDTC" Value="2014-07-19"/> </ItemGroupData>
<ItemGroupData data:ItemGroupDataSeq="147" ItemGroupOID="SV"> <ItemData ItemOID="SV.STUDYID" Value="CDISCPILOT01"/> <ItemData ItemOID="SV.DOMAIN" Value="SV"/> <ItemData ItemOID="SV.USUBJID" Value="01-701-1130"/> <ItemData ItemOID="SV.VISITNUM" Value="12"/> <ItemData ItemOID="SV.VISIT" Value="WEEK 24"/> <ItemData ItemOID="SV.VISITDY" Value="168"/> <ItemData ItemOID="SV.SVSTDTC" Value="2014-08-02"/> <ItemData ItemOID="SV.SVENDTC" Value="2014-08-02"/> </ItemGroupData>
<ItemGroupData data:ItemGroupDataSeq="148" ItemGroupOID="SV"> <ItemData ItemOID="SV.STUDYID" Value="CDISCPILOT01"/> <ItemData ItemOID="SV.DOMAIN" Value="SV"/> <ItemData ItemOID="SV.USUBJID" Value="01-701-1130"/> <ItemData ItemOID="SV.VISITNUM" Value="13"/> <ItemData ItemOID="SV.VISIT" Value="WEEK 26"/> <ItemData ItemOID="SV.VISITDY" Value="182"/> <ItemData ItemOID="SV.SVSTDTC" Value="2014-08-16"/> <ItemData ItemOID="SV.SVENDTC" Value="2014-08-16"/> </ItemGroupData>
<ItemGroupData data:ItemGroupDataSeq="149" ItemGroupOID="SV"> <ItemData ItemOID="SV.STUDYID" Value="CDISCPILOT01"/> <ItemData ItemOID="SV.DOMAIN" Value="SV"/> <ItemData ItemOID="SV.USUBJID" Value="01-701-1133"/> <ItemData ItemOID="SV.VISITNUM" Value="1"/> <ItemData ItemOID="SV.VISIT" Value="SCREENING 1"/> <ItemData ItemOID="SV.VISITDY" Value="-7"/> <ItemData ItemOID="SV.SVSTDTC" Value="2012-10-23"/> <ItemData ItemOID="SV.SVENDTC" Value="2012-10-23"/> </ItemGroupData>
<ItemGroupData data:ItemGroupDataSeq="150" ItemGroupOID="SV"> <ItemData ItemOID="SV.STUDYID" Value="CDISCPILOT01"/> <ItemData ItemOID="SV.DOMAIN" Value="SV"/> <ItemData ItemOID="SV.USUBJID" Value="01-701-1133"/> <ItemData ItemOID="SV.VISITNUM" Value="2"/> <ItemData ItemOID="SV.VISIT" Value="SCREENING 2"/> <ItemData ItemOID="SV.VISITDY" Value="-1"/> <ItemData ItemOID="SV.SVSTDTC" Value="2012-10-26"/> <ItemData ItemOID="SV.SVENDTC" Value="2012-10-26"/> </ItemGroupData>
<ItemGroupData data:ItemGroupDataSeq="151" ItemGroupOID="SV"> <ItemData ItemOID="SV.STUDYID" Value="CDISCPILOT01"/> <ItemData ItemOID="SV.DOMAIN" Value="SV"/> <ItemData ItemOID="SV.USUBJID" Value="01-701-1133"/> <ItemData ItemOID="SV.VISITNUM" Value="3"/> <ItemData ItemOID="SV.VISIT" Value="BASELINE"/> <ItemData ItemOID="SV.VISITDY" Value="1"/> <ItemData ItemOID="SV.SVSTDTC" Value="2012-10-28"/> <ItemData ItemOID="SV.SVENDTC" Value="2012-10-28"/> </ItemGroupData>
<ItemGroupData data:ItemGroupDataSeq="152" ItemGroupOID="SV"> <ItemData ItemOID="SV.STUDYID" Value="CDISCPILOT01"/> <ItemData ItemOID="SV.DOMAIN" Value="SV"/> <ItemData ItemOID="SV.USUBJID" Value="01-701-1133"/> <ItemData ItemOID="SV.VISITNUM" Value="3.5"/> <ItemData ItemOID="SV.VISIT" Value="AMBUL ECG PLACEMENT"/> <ItemData ItemOID="SV.VISITDY" Value="13"/> <ItemData ItemOID="SV.SVSTDTC" Value="2012-11-11"/> <ItemData ItemOID="SV.SVENDTC" Value="2012-11-11"/> </ItemGroupData>
<ItemGroupData data:ItemGroupDataSeq="153" ItemGroupOID="SV"> <ItemData ItemOID="SV.STUDYID" Value="CDISCPILOT01"/> <ItemData ItemOID="SV.DOMAIN" Value="SV"/> <ItemData ItemOID="SV.USUBJID" Value="01-701-1133"/> <ItemData ItemOID="SV.VISITNUM" Value="4"/> <ItemData ItemOID="SV.VISIT" Value="WEEK 2"/> <ItemData ItemOID="SV.VISITDY" Value="14"/> <ItemData ItemOID="SV.SVSTDTC" Value="2012-11-12"/> <ItemData ItemOID="SV.SVENDTC" Value="2012-11-12"/> </ItemGroupData>
<ItemGroupData data:ItemGroupDataSeq="154" ItemGroupOID="SV"> <ItemData ItemOID="SV.STUDYID" Value="CDISCPILOT01"/> <ItemData ItemOID="SV.DOMAIN" Value="SV"/> <ItemData ItemOID="SV.USUBJID" Value="01-701-1133"/> <ItemData ItemOID="SV.VISITNUM" Value="5"/> <ItemData ItemOID="SV.VISIT" Value="WEEK 4"/> <ItemData ItemOID="SV.VISITDY" Value="28"/> <ItemData ItemOID="SV.SVSTDTC" Value="2012-11-26"/> <ItemData ItemOID="SV.SVENDTC" Value="2012-11-26"/> </ItemGroupData>
<ItemGroupData data:ItemGroupDataSeq="155" ItemGroupOID="SV"> <ItemData ItemOID="SV.STUDYID" Value="CDISCPILOT01"/> <ItemData ItemOID="SV.DOMAIN" Value="SV"/> <ItemData ItemOID="SV.USUBJID" Value="01-701-1133"/> <ItemData ItemOID="SV.VISITNUM" Value="6"/> <ItemData ItemOID="SV.VISIT" Value="AMBUL ECG REMOVAL"/> <ItemData ItemOID="SV.VISITDY" Value="30"/> <ItemData ItemOID="SV.SVSTDTC" Value="2012-11-28"/> <ItemData ItemOID="SV.SVENDTC" Value="2012-11-28"/> </ItemGroupData>
<ItemGroupData data:ItemGroupDataSeq="156" ItemGroupOID="SV"> <ItemData ItemOID="SV.STUDYID" Value="CDISCPILOT01"/> <ItemData ItemOID="SV.DOMAIN" Value="SV"/> <ItemData ItemOID="SV.USUBJID" Value="01-701-1133"/> <ItemData ItemOID="SV.VISITNUM" Value="7"/> <ItemData ItemOID="SV.VISIT" Value="WEEK 6"/> <ItemData ItemOID="SV.VISITDY" Value="42"/> <ItemData ItemOID="SV.SVSTDTC" Value="2012-12-11"/> <ItemData ItemOID="SV.SVENDTC" Value="2012-12-11"/> </ItemGroupData>
<ItemGroupData data:ItemGroupDataSeq="157" ItemGroupOID="SV"> <ItemData ItemOID="SV.STUDYID" Value="CDISCPILOT01"/> <ItemData ItemOID="SV.DOMAIN" Value="SV"/> <ItemData ItemOID="SV.USUBJID" Value="01-701-1133"/> <ItemData ItemOID="SV.VISITNUM" Value="8"/> <ItemData ItemOID="SV.VISIT" Value="WEEK 8"/> <ItemData ItemOID="SV.VISITDY" Value="56"/> <ItemData ItemOID="SV.SVSTDTC" Value="2012-12-24"/> <ItemData ItemOID="SV.SVENDTC" Value="2012-12-24"/> </ItemGroupData>
<ItemGroupData data:ItemGroupDataSeq="158" ItemGroupOID="SV"> <ItemData ItemOID="SV.STUDYID" Value="CDISCPILOT01"/> <ItemData ItemOID="SV.DOMAIN" Value="SV"/> <ItemData ItemOID="SV.USUBJID" Value="01-701-1133"/> <ItemData ItemOID="SV.VISITNUM" Value="8.1"/> <ItemData ItemOID="SV.VISIT" Value="WEEK 10 (T)"/> <ItemData ItemOID="SV.VISITDY" Value="70"/> <ItemData ItemOID="SV.SVSTDTC" Value="2013-01-07"/> <ItemData ItemOID="SV.SVENDTC" Value="2013-01-07"/> </ItemGroupData>
<ItemGroupData data:ItemGroupDataSeq="159" ItemGroupOID="SV"> <ItemData ItemOID="SV.STUDYID" Value="CDISCPILOT01"/> <ItemData ItemOID="SV.DOMAIN" Value="SV"/> <ItemData ItemOID="SV.USUBJID" Value="01-701-1133"/> <ItemData ItemOID="SV.VISITNUM" Value="9"/> <ItemData ItemOID="SV.VISIT" Value="WEEK 12"/> <ItemData ItemOID="SV.VISITDY" Value="84"/> <ItemData ItemOID="SV.SVSTDTC" Value="2013-01-22"/> <ItemData ItemOID="SV.SVENDTC" Value="2013-01-22"/> </ItemGroupData>
<ItemGroupData data:ItemGroupDataSeq="160" ItemGroupOID="SV"> <ItemData ItemOID="SV.STUDYID" Value="CDISCPILOT01"/> <ItemData ItemOID="SV.DOMAIN" Value="SV"/> <ItemData ItemOID="SV.USUBJID" Value="01-701-1133"/> <ItemData ItemOID="SV.VISITNUM" Value="9.1"/> <ItemData ItemOID="SV.VISIT" Value="WEEK 14 (T)"/> <ItemData ItemOID="SV.VISITDY" Value="98"/> <ItemData ItemOID="SV.SVSTDTC" Value="2013-02-04"/> <ItemData ItemOID="SV.SVENDTC" Value="2013-02-04"/> </ItemGroupData>
<ItemGroupData data:ItemGroupDataSeq="161" ItemGroupOID="SV"> <ItemData ItemOID="SV.STUDYID" Value="CDISCPILOT01"/> <ItemData ItemOID="SV.DOMAIN" Value="SV"/> <ItemData ItemOID="SV.USUBJID" Value="01-701-1133"/> <ItemData ItemOID="SV.VISITNUM" Value="10"/> <ItemData ItemOID="SV.VISIT" Value="WEEK 16"/> <ItemData ItemOID="SV.VISITDY" Value="112"/> <ItemData ItemOID="SV.SVSTDTC" Value="2013-02-18"/> <ItemData ItemOID="SV.SVENDTC" Value="2013-02-18"/> </ItemGroupData>
<ItemGroupData data:ItemGroupDataSeq="162" ItemGroupOID="SV"> <ItemData ItemOID="SV.STUDYID" Value="CDISCPILOT01"/> <ItemData ItemOID="SV.DOMAIN" Value="SV"/> <ItemData ItemOID="SV.USUBJID" Value="01-701-1133"/> <ItemData ItemOID="SV.VISITNUM" Value="10.1"/> <ItemData ItemOID="SV.VISIT" Value="WEEK 18 (T)"/> <ItemData ItemOID="SV.VISITDY" Value="126"/> <ItemData ItemOID="SV.SVSTDTC" Value="2013-03-04"/> <ItemData ItemOID="SV.SVENDTC" Value="2013-03-04"/> </ItemGroupData>
<ItemGroupData data:ItemGroupDataSeq="163" ItemGroupOID="SV"> <ItemData ItemOID="SV.STUDYID" Value="CDISCPILOT01"/> <ItemData ItemOID="SV.DOMAIN" Value="SV"/> <ItemData ItemOID="SV.USUBJID" Value="01-701-1133"/> <ItemData ItemOID="SV.VISITNUM" Value="11"/> <ItemData ItemOID="SV.VISIT" Value="WEEK 20"/> <ItemData ItemOID="SV.VISITDY" Value="140"/> <ItemData ItemOID="SV.SVSTDTC" Value="2013-03-18"/> <ItemData ItemOID="SV.SVENDTC" Value="2013-03-18"/> </ItemGroupData>
<ItemGroupData data:ItemGroupDataSeq="164" ItemGroupOID="SV"> <ItemData ItemOID="SV.STUDYID" Value="CDISCPILOT01"/> <ItemData ItemOID="SV.DOMAIN" Value="SV"/> <ItemData ItemOID="SV.USUBJID" Value="01-701-1133"/> <ItemData ItemOID="SV.VISITNUM" Value="11.1"/> <ItemData ItemOID="SV.VISIT" Value="WEEK 22 (T)"/> <ItemData ItemOID="SV.VISITDY" Value="154"/> <ItemData ItemOID="SV.SVSTDTC" Value="2013-04-01"/> <ItemData ItemOID="SV.SVENDTC" Value="2013-04-01"/> </ItemGroupData>
<ItemGroupData data:ItemGroupDataSeq="165" ItemGroupOID="SV"> <ItemData ItemOID="SV.STUDYID" Value="CDISCPILOT01"/> <ItemData ItemOID="SV.DOMAIN" Value="SV"/> <ItemData ItemOID="SV.USUBJID" Value="01-701-1133"/> <ItemData ItemOID="SV.VISITNUM" Value="12"/> <ItemData ItemOID="SV.VISIT" Value="WEEK 24"/> <ItemData ItemOID="SV.VISITDY" Value="168"/> <ItemData ItemOID="SV.SVSTDTC" Value="2013-04-18"/> <ItemData ItemOID="SV.SVENDTC" Value="2013-04-18"/> </ItemGroupData>
<ItemGroupData data:ItemGroupDataSeq="166" ItemGroupOID="SV"> <ItemData ItemOID="SV.STUDYID" Value="CDISCPILOT01"/> <ItemData ItemOID="SV.DOMAIN" Value="SV"/> <ItemData ItemOID="SV.USUBJID" Value="01-701-1133"/> <ItemData ItemOID="SV.VISITNUM" Value="13"/> <ItemData ItemOID="SV.VISIT" Value="WEEK 26"/> <ItemData ItemOID="SV.VISITDY" Value="182"/> <ItemData ItemOID="SV.SVSTDTC" Value="2013-04-29"/> <ItemData ItemOID="SV.SVENDTC" Value="2013-04-29"/> </ItemGroupData>
<ItemGroupData data:ItemGroupDataSeq="167" ItemGroupOID="SV"> <ItemData ItemOID="SV.STUDYID" Value="CDISCPILOT01"/> <ItemData ItemOID="SV.DOMAIN" Value="SV"/> <ItemData ItemOID="SV.USUBJID" Value="01-701-1145"/> <ItemData ItemOID="SV.VISITNUM" Value="1"/> <ItemData ItemOID="SV.VISIT" Value="SCREENING 1"/> <ItemData ItemOID="SV.VISITDY" Value="-7"/> <ItemData ItemOID="SV.SVSTDTC" Value="2013-09-05"/> <ItemData ItemOID="SV.SVENDTC" Value="2013-09-05"/> </ItemGroupData>
<ItemGroupData data:ItemGroupDataSeq="168" ItemGroupOID="SV"> <ItemData ItemOID="SV.STUDYID" Value="CDISCPILOT01"/> <ItemData ItemOID="SV.DOMAIN" Value="SV"/> <ItemData ItemOID="SV.USUBJID" Value="01-701-1146"/> <ItemData ItemOID="SV.VISITNUM" Value="1"/> <ItemData ItemOID="SV.VISIT" Value="SCREENING 1"/> <ItemData ItemOID="SV.VISITDY" Value="-7"/> <ItemData ItemOID="SV.SVSTDTC" Value="2013-05-07"/> <ItemData ItemOID="SV.SVENDTC" Value="2013-05-07"/> </ItemGroupData>
<ItemGroupData data:ItemGroupDataSeq="169" ItemGroupOID="SV"> <ItemData ItemOID="SV.STUDYID" Value="CDISCPILOT01"/> <ItemData ItemOID="SV.DOMAIN" Value="SV"/> <ItemData ItemOID="SV.USUBJID" Value="01-701-1146"/> <ItemData ItemOID="SV.VISITNUM" Value="2"/> <ItemData ItemOID="SV.VISIT" Value="SCREENING 2"/> <ItemData ItemOID="SV.VISITDY" Value="-1"/> <ItemData ItemOID="SV.SVSTDTC" Value="2013-05-18"/> <ItemData ItemOID="SV.SVENDTC" Value="2013-05-18"/> </ItemGroupData>
<ItemGroupData data:ItemGroupDataSeq="170" ItemGroupOID="SV"> <ItemData ItemOID="SV.STUDYID" Value="CDISCPILOT01"/> <ItemData ItemOID="SV.DOMAIN" Value="SV"/> <ItemData ItemOID="SV.USUBJID" Value="01-701-1146"/> <ItemData ItemOID="SV.VISITNUM" Value="3"/> <ItemData ItemOID="SV.VISIT" Value="BASELINE"/> <ItemData ItemOID="SV.VISITDY" Value="1"/> <ItemData ItemOID="SV.SVSTDTC" Value="2013-05-20"/> <ItemData ItemOID="SV.SVENDTC" Value="2013-05-20"/> </ItemGroupData>
<ItemGroupData data:ItemGroupDataSeq="171" ItemGroupOID="SV"> <ItemData ItemOID="SV.STUDYID" Value="CDISCPILOT01"/> <ItemData ItemOID="SV.DOMAIN" Value="SV"/> <ItemData ItemOID="SV.USUBJID" Value="01-701-1146"/> <ItemData ItemOID="SV.VISITNUM" Value="3.5"/> <ItemData ItemOID="SV.VISIT" Value="AMBUL ECG PLACEMENT"/> <ItemData ItemOID="SV.VISITDY" Value="13"/> <ItemData ItemOID="SV.SVSTDTC" Value="2013-06-02"/> <ItemData ItemOID="SV.SVENDTC" Value="2013-06-02"/> </ItemGroupData>
<ItemGroupData data:ItemGroupDataSeq="172" ItemGroupOID="SV"> <ItemData ItemOID="SV.STUDYID" Value="CDISCPILOT01"/> <ItemData ItemOID="SV.DOMAIN" Value="SV"/> <ItemData ItemOID="SV.USUBJID" Value="01-701-1146"/> <ItemData ItemOID="SV.VISITNUM" Value="4"/> <ItemData ItemOID="SV.VISIT" Value="WEEK 2"/> <ItemData ItemOID="SV.VISITDY" Value="14"/> <ItemData ItemOID="SV.SVSTDTC" Value="2013-06-03"/> <ItemData ItemOID="SV.SVENDTC" Value="2013-06-03"/> </ItemGroupData>
<ItemGroupData data:ItemGroupDataSeq="173" ItemGroupOID="SV"> <ItemData ItemOID="SV.STUDYID" Value="CDISCPILOT01"/> <ItemData ItemOID="SV.DOMAIN" Value="SV"/> <ItemData ItemOID="SV.USUBJID" Value="01-701-1146"/> <ItemData ItemOID="SV.VISITNUM" Value="5"/> <ItemData ItemOID="SV.VISIT" Value="WEEK 4"/> <ItemData ItemOID="SV.VISITDY" Value="28"/> <ItemData ItemOID="SV.SVSTDTC" Value="2013-06-16"/> <ItemData ItemOID="SV.SVENDTC" Value="2013-06-16"/> </ItemGroupData>
<ItemGroupData data:ItemGroupDataSeq="174" ItemGroupOID="SV"> <ItemData ItemOID="SV.STUDYID" Value="CDISCPILOT01"/> <ItemData ItemOID="SV.DOMAIN" Value="SV"/> <ItemData ItemOID="SV.USUBJID" Value="01-701-1146"/> <ItemData ItemOID="SV.VISITNUM" Value="6"/> <ItemData ItemOID="SV.VISIT" Value="AMBUL ECG REMOVAL"/> <ItemData ItemOID="SV.VISITDY" Value="30"/> <ItemData ItemOID="SV.SVSTDTC" Value="2013-06-18"/> <ItemData ItemOID="SV.SVENDTC" Value="2013-06-18"/> </ItemGroupData>
<ItemGroupData data:ItemGroupDataSeq="175" ItemGroupOID="SV"> <ItemData ItemOID="SV.STUDYID" Value="CDISCPILOT01"/> <ItemData ItemOID="SV.DOMAIN" Value="SV"/> <ItemData ItemOID="SV.USUBJID" Value="01-701-1146"/> <ItemData ItemOID="SV.VISITNUM" Value="7"/> <ItemData ItemOID="SV.VISIT" Value="WEEK 6"/> <ItemData ItemOID="SV.VISITDY" Value="42"/> <ItemData ItemOID="SV.SVSTDTC" Value="2013-06-30"/> <ItemData ItemOID="SV.SVENDTC" Value="2013-06-30"/> </ItemGroupData>
<ItemGroupData data:ItemGroupDataSeq="176" ItemGroupOID="SV"> <ItemData ItemOID="SV.STUDYID" Value="CDISCPILOT01"/> <ItemData ItemOID="SV.DOMAIN" Value="SV"/> <ItemData ItemOID="SV.USUBJID" Value="01-701-1146"/> <ItemData ItemOID="SV.VISITNUM" Value="101"/> <ItemData ItemOID="SV.VISIT" Value="AE FOLLOW-UP"/> <ItemData ItemOID="SV.SVSTDTC" Value="2013-07-15"/> <ItemData ItemOID="SV.SVENDTC" Value="2013-07-15"/> </ItemGroupData>
<ItemGroupData data:ItemGroupDataSeq="177" ItemGroupOID="SV"> <ItemData ItemOID="SV.STUDYID" Value="CDISCPILOT01"/> <ItemData ItemOID="SV.DOMAIN" Value="SV"/> <ItemData ItemOID="SV.USUBJID" Value="01-701-1148"/> <ItemData ItemOID="SV.VISITNUM" Value="1"/> <ItemData ItemOID="SV.VISIT" Value="SCREENING 1"/> <ItemData ItemOID="SV.VISITDY" Value="-7"/> <ItemData ItemOID="SV.SVSTDTC" Value="2013-08-14"/> <ItemData ItemOID="SV.SVENDTC" Value="2013-08-14"/> </ItemGroupData>
<ItemGroupData data:ItemGroupDataSeq="178" ItemGroupOID="SV"> <ItemData ItemOID="SV.STUDYID" Value="CDISCPILOT01"/> <ItemData ItemOID="SV.DOMAIN" Value="SV"/> <ItemData ItemOID="SV.USUBJID" Value="01-701-1148"/> <ItemData ItemOID="SV.VISITNUM" Value="2"/> <ItemData ItemOID="SV.VISIT" Value="SCREENING 2"/> <ItemData ItemOID="SV.VISITDY" Value="-1"/> <ItemData ItemOID="SV.SVSTDTC" Value="2013-08-21"/> <ItemData ItemOID="SV.SVENDTC" Value="2013-08-21"/> </ItemGroupData>
<ItemGroupData data:ItemGroupDataSeq="179" ItemGroupOID="SV"> <ItemData ItemOID="SV.STUDYID" Value="CDISCPILOT01"/> <ItemData ItemOID="SV.DOMAIN" Value="SV"/> <ItemData ItemOID="SV.USUBJID" Value="01-701-1148"/> <ItemData ItemOID="SV.VISITNUM" Value="3"/> <ItemData ItemOID="SV.VISIT" Value="BASELINE"/> <ItemData ItemOID="SV.VISITDY" Value="1"/> <ItemData ItemOID="SV.SVSTDTC" Value="2013-08-23"/> <ItemData ItemOID="SV.SVENDTC" Value="2013-08-23"/> </ItemGroupData>
<ItemGroupData data:ItemGroupDataSeq="180" ItemGroupOID="SV"> <ItemData ItemOID="SV.STUDYID" Value="CDISCPILOT01"/> <ItemData ItemOID="SV.DOMAIN" Value="SV"/> <ItemData ItemOID="SV.USUBJID" Value="01-701-1148"/> <ItemData ItemOID="SV.VISITNUM" Value="3.5"/> <ItemData ItemOID="SV.VISIT" Value="AMBUL ECG PLACEMENT"/> <ItemData ItemOID="SV.VISITDY" Value="13"/> <ItemData ItemOID="SV.SVSTDTC" Value="2013-09-04"/> <ItemData ItemOID="SV.SVENDTC" Value="2013-09-04"/> </ItemGroupData>
<ItemGroupData data:ItemGroupDataSeq="181" ItemGroupOID="SV"> <ItemData ItemOID="SV.STUDYID" Value="CDISCPILOT01"/> <ItemData ItemOID="SV.DOMAIN" Value="SV"/> <ItemData ItemOID="SV.USUBJID" Value="01-701-1148"/> <ItemData ItemOID="SV.VISITNUM" Value="4"/> <ItemData ItemOID="SV.VISIT" Value="WEEK 2"/> <ItemData ItemOID="SV.VISITDY" Value="14"/> <ItemData ItemOID="SV.SVSTDTC" Value="2013-09-05"/> <ItemData ItemOID="SV.SVENDTC" Value="2013-09-05"/> </ItemGroupData>
<ItemGroupData data:ItemGroupDataSeq="182" ItemGroupOID="SV"> <ItemData ItemOID="SV.STUDYID" Value="CDISCPILOT01"/> <ItemData ItemOID="SV.DOMAIN" Value="SV"/> <ItemData ItemOID="SV.USUBJID" Value="01-701-1148"/> <ItemData ItemOID="SV.VISITNUM" Value="5"/> <ItemData ItemOID="SV.VISIT" Value="WEEK 4"/> <ItemData ItemOID="SV.VISITDY" Value="28"/> <ItemData ItemOID="SV.SVSTDTC" Value="2013-09-19"/> <ItemData ItemOID="SV.SVENDTC" Value="2013-09-19"/> </ItemGroupData>
<ItemGroupData data:ItemGroupDataSeq="183" ItemGroupOID="SV"> <ItemData ItemOID="SV.STUDYID" Value="CDISCPILOT01"/> <ItemData ItemOID="SV.DOMAIN" Value="SV"/> <ItemData ItemOID="SV.USUBJID" Value="01-701-1148"/> <ItemData ItemOID="SV.VISITNUM" Value="6"/> <ItemData ItemOID="SV.VISIT" Value="AMBUL ECG REMOVAL"/> <ItemData ItemOID="SV.VISITDY" Value="30"/> <ItemData ItemOID="SV.SVSTDTC" Value="2013-09-21"/> <ItemData ItemOID="SV.SVENDTC" Value="2013-09-21"/> </ItemGroupData>
<ItemGroupData data:ItemGroupDataSeq="184" ItemGroupOID="SV"> <ItemData ItemOID="SV.STUDYID" Value="CDISCPILOT01"/> <ItemData ItemOID="SV.DOMAIN" Value="SV"/> <ItemData ItemOID="SV.USUBJID" Value="01-701-1148"/> <ItemData ItemOID="SV.VISITNUM" Value="7"/> <ItemData ItemOID="SV.VISIT" Value="WEEK 6"/> <ItemData ItemOID="SV.VISITDY" Value="42"/> <ItemData ItemOID="SV.SVSTDTC" Value="2013-10-03"/> <ItemData ItemOID="SV.SVENDTC" Value="2013-10-03"/> </ItemGroupData>
<ItemGroupData data:ItemGroupDataSeq="185" ItemGroupOID="SV"> <ItemData ItemOID="SV.STUDYID" Value="CDISCPILOT01"/> <ItemData ItemOID="SV.DOMAIN" Value="SV"/> <ItemData ItemOID="SV.USUBJID" Value="01-701-1148"/> <ItemData ItemOID="SV.VISITNUM" Value="8"/> <ItemData ItemOID="SV.VISIT" Value="WEEK 8"/> <ItemData ItemOID="SV.VISITDY" Value="56"/> <ItemData ItemOID="SV.SVSTDTC" Value="2013-10-18"/> <ItemData ItemOID="SV.SVENDTC" Value="2013-10-18"/> </ItemGroupData>
<ItemGroupData data:ItemGroupDataSeq="186" ItemGroupOID="SV"> <ItemData ItemOID="SV.STUDYID" Value="CDISCPILOT01"/> <ItemData ItemOID="SV.DOMAIN" Value="SV"/> <ItemData ItemOID="SV.USUBJID" Value="01-701-1148"/> <ItemData ItemOID="SV.VISITNUM" Value="8.1"/> <ItemData ItemOID="SV.VISIT" Value="WEEK 10 (T)"/> <ItemData ItemOID="SV.VISITDY" Value="70"/> <ItemData ItemOID="SV.SVSTDTC" Value="2013-11-01"/> <ItemData ItemOID="SV.SVENDTC" Value="2013-11-01"/> </ItemGroupData>
<ItemGroupData data:ItemGroupDataSeq="187" ItemGroupOID="SV"> <ItemData ItemOID="SV.STUDYID" Value="CDISCPILOT01"/> <ItemData ItemOID="SV.DOMAIN" Value="SV"/> <ItemData ItemOID="SV.USUBJID" Value="01-701-1148"/> <ItemData ItemOID="SV.VISITNUM" Value="9"/> <ItemData ItemOID="SV.VISIT" Value="WEEK 12"/> <ItemData ItemOID="SV.VISITDY" Value="84"/> <ItemData ItemOID="SV.SVSTDTC" Value="2013-11-17"/> <ItemData ItemOID="SV.SVENDTC" Value="2013-11-17"/> </ItemGroupData>
<ItemGroupData data:ItemGroupDataSeq="188" ItemGroupOID="SV"> <ItemData ItemOID="SV.STUDYID" Value="CDISCPILOT01"/> <ItemData ItemOID="SV.DOMAIN" Value="SV"/> <ItemData ItemOID="SV.USUBJID" Value="01-701-1148"/> <ItemData ItemOID="SV.VISITNUM" Value="9.1"/> <ItemData ItemOID="SV.VISIT" Value="WEEK 14 (T)"/> <ItemData ItemOID="SV.VISITDY" Value="98"/> <ItemData ItemOID="SV.SVSTDTC" Value="2013-11-30"/> <ItemData ItemOID="SV.SVENDTC" Value="2013-11-30"/> </ItemGroupData>
<ItemGroupData data:ItemGroupDataSeq="189" ItemGroupOID="SV"> <ItemData ItemOID="SV.STUDYID" Value="CDISCPILOT01"/> <ItemData ItemOID="SV.DOMAIN" Value="SV"/> <ItemData ItemOID="SV.USUBJID" Value="01-701-1148"/> <ItemData ItemOID="SV.VISITNUM" Value="10"/> <ItemData ItemOID="SV.VISIT" Value="WEEK 16"/> <ItemData ItemOID="SV.VISITDY" Value="112"/> <ItemData ItemOID="SV.SVSTDTC" Value="2013-12-13"/> <ItemData ItemOID="SV.SVENDTC" Value="2013-12-13"/> </ItemGroupData>
<ItemGroupData data:ItemGroupDataSeq="190" ItemGroupOID="SV"> <ItemData ItemOID="SV.STUDYID" Value="CDISCPILOT01"/> <ItemData ItemOID="SV.DOMAIN" Value="SV"/> <ItemData ItemOID="SV.USUBJID" Value="01-701-1148"/> <ItemData ItemOID="SV.VISITNUM" Value="10.1"/> <ItemData ItemOID="SV.VISIT" Value="WEEK 18 (T)"/> <ItemData ItemOID="SV.VISITDY" Value="126"/> <ItemData ItemOID="SV.SVSTDTC" Value="2013-12-27"/> <ItemData ItemOID="SV.SVENDTC" Value="2013-12-27"/> </ItemGroupData>
<ItemGroupData data:ItemGroupDataSeq="191" ItemGroupOID="SV"> <ItemData ItemOID="SV.STUDYID" Value="CDISCPILOT01"/> <ItemData ItemOID="SV.DOMAIN" Value="SV"/> <ItemData ItemOID="SV.USUBJID" Value="01-701-1148"/> <ItemData ItemOID="SV.VISITNUM" Value="11"/> <ItemData ItemOID="SV.VISIT" Value="WEEK 20"/> <ItemData ItemOID="SV.VISITDY" Value="140"/> <ItemData ItemOID="SV.SVSTDTC" Value="2014-01-10"/> <ItemData ItemOID="SV.SVENDTC" Value="2014-01-10"/> </ItemGroupData>
<ItemGroupData data:ItemGroupDataSeq="192" ItemGroupOID="SV"> <ItemData ItemOID="SV.STUDYID" Value="CDISCPILOT01"/> <ItemData ItemOID="SV.DOMAIN" Value="SV"/> <ItemData ItemOID="SV.USUBJID" Value="01-701-1148"/> <ItemData ItemOID="SV.VISITNUM" Value="11.1"/> <ItemData ItemOID="SV.VISIT" Value="WEEK 22 (T)"/> <ItemData ItemOID="SV.VISITDY" Value="154"/> <ItemData ItemOID="SV.SVSTDTC" Value="2014-01-24"/> <ItemData ItemOID="SV.SVENDTC" Value="2014-01-24"/> </ItemGroupData>
<ItemGroupData data:ItemGroupDataSeq="193" ItemGroupOID="SV"> <ItemData ItemOID="SV.STUDYID" Value="CDISCPILOT01"/> <ItemData ItemOID="SV.DOMAIN" Value="SV"/> <ItemData ItemOID="SV.USUBJID" Value="01-701-1148"/> <ItemData ItemOID="SV.VISITNUM" Value="12"/> <ItemData ItemOID="SV.VISIT" Value="WEEK 24"/> <ItemData ItemOID="SV.VISITDY" Value="168"/> <ItemData ItemOID="SV.SVSTDTC" Value="2014-02-08"/> <ItemData ItemOID="SV.SVENDTC" Value="2014-02-08"/> </ItemGroupData>
<ItemGroupData data:ItemGroupDataSeq="194" ItemGroupOID="SV"> <ItemData ItemOID="SV.STUDYID" Value="CDISCPILOT01"/> <ItemData ItemOID="SV.DOMAIN" Value="SV"/> <ItemData ItemOID="SV.USUBJID" Value="01-701-1148"/> <ItemData ItemOID="SV.VISITNUM" Value="13"/> <ItemData ItemOID="SV.VISIT" Value="WEEK 26"/> <ItemData ItemOID="SV.VISITDY" Value="182"/> <ItemData ItemOID="SV.SVSTDTC" Value="2014-02-20"/> <ItemData ItemOID="SV.SVENDTC" Value="2014-02-20"/> </ItemGroupData>
<ItemGroupData data:ItemGroupDataSeq="195" ItemGroupOID="SV"> <ItemData ItemOID="SV.STUDYID" Value="CDISCPILOT01"/> <ItemData ItemOID="SV.DOMAIN" Value="SV"/> <ItemData ItemOID="SV.USUBJID" Value="01-701-1153"/> <ItemData ItemOID="SV.VISITNUM" Value="1"/> <ItemData ItemOID="SV.VISIT" Value="SCREENING 1"/> <ItemData ItemOID="SV.VISITDY" Value="-7"/> <ItemData ItemOID="SV.SVSTDTC" Value="2013-09-06"/> <ItemData ItemOID="SV.SVENDTC" Value="2013-09-06"/> </ItemGroupData>
<ItemGroupData data:ItemGroupDataSeq="196" ItemGroupOID="SV"> <ItemData ItemOID="SV.STUDYID" Value="CDISCPILOT01"/> <ItemData ItemOID="SV.DOMAIN" Value="SV"/> <ItemData ItemOID="SV.USUBJID" Value="01-701-1153"/> <ItemData ItemOID="SV.VISITNUM" Value="2"/> <ItemData ItemOID="SV.VISIT" Value="SCREENING 2"/> <ItemData ItemOID="SV.VISITDY" Value="-1"/> <ItemData ItemOID="SV.SVSTDTC" Value="2013-09-18"/> <ItemData ItemOID="SV.SVENDTC" Value="2013-09-18"/> </ItemGroupData>
<ItemGroupData data:ItemGroupDataSeq="197" ItemGroupOID="SV"> <ItemData ItemOID="SV.STUDYID" Value="CDISCPILOT01"/> <ItemData ItemOID="SV.DOMAIN" Value="SV"/> <ItemData ItemOID="SV.USUBJID" Value="01-701-1153"/> <ItemData ItemOID="SV.VISITNUM" Value="3"/> <ItemData ItemOID="SV.VISIT" Value="BASELINE"/> <ItemData ItemOID="SV.VISITDY" Value="1"/> <ItemData ItemOID="SV.SVSTDTC" Value="2013-09-23"/> <ItemData ItemOID="SV.SVENDTC" Value="2013-09-23"/> </ItemGroupData>
<ItemGroupData data:ItemGroupDataSeq="198" ItemGroupOID="SV"> <ItemData ItemOID="SV.STUDYID" Value="CDISCPILOT01"/> <ItemData ItemOID="SV.DOMAIN" Value="SV"/> <ItemData ItemOID="SV.USUBJID" Value="01-701-1153"/> <ItemData ItemOID="SV.VISITNUM" Value="3.5"/> <ItemData ItemOID="SV.VISIT" Value="AMBUL ECG PLACEMENT"/> <ItemData ItemOID="SV.VISITDY" Value="13"/> <ItemData ItemOID="SV.SVSTDTC" Value="2013-10-07"/> <ItemData ItemOID="SV.SVENDTC" Value="2013-10-07"/> </ItemGroupData>
<ItemGroupData data:ItemGroupDataSeq="199" ItemGroupOID="SV"> <ItemData ItemOID="SV.STUDYID" Value="CDISCPILOT01"/> <ItemData ItemOID="SV.DOMAIN" Value="SV"/> <ItemData ItemOID="SV.USUBJID" Value="01-701-1153"/> <ItemData ItemOID="SV.VISITNUM" Value="4"/> <ItemData ItemOID="SV.VISIT" Value="WEEK 2"/> <ItemData ItemOID="SV.VISITDY" Value="14"/> <ItemData ItemOID="SV.SVSTDTC" Value="2013-10-08"/> <ItemData ItemOID="SV.SVENDTC" Value="2013-10-08"/> </ItemGroupData>
<ItemGroupData data:ItemGroupDataSeq="200" ItemGroupOID="SV"> <ItemData ItemOID="SV.STUDYID" Value="CDISCPILOT01"/> <ItemData ItemOID="SV.DOMAIN" Value="SV"/> <ItemData ItemOID="SV.USUBJID" Value="01-701-1153"/> <ItemData ItemOID="SV.VISITNUM" Value="5"/> <ItemData ItemOID="SV.VISIT" Value="WEEK 4"/> <ItemData ItemOID="SV.VISITDY" Value="28"/> <ItemData ItemOID="SV.SVSTDTC" Value="2013-10-19"/> <ItemData ItemOID="SV.SVENDTC" Value="2013-10-19"/> </ItemGroupData>