<?xml version="1.0" encoding="UTF-8"?>
<ODM xmlns:data="http://www.cdisc.org/ns/Dataset-XML/v1.0"
     xmlns="http://www.cdisc.org/ns/odm/v1.3"
     data:DatasetXMLVersion="1.0.0"
     ODMVersion="1.3.2"
     FileType="Snapshot"
     FileOID="SDTM-XML"
     CreationDateTime="2012-12-08T23:06:03.046+01:00">
   <ClinicalData StudyOID="LZZT" MetaDataVersionOID="CDISC.SDTM.3.1.0">
      <ItemGroupData data:ItemGroupDataSeq="1" ItemGroupOID="CO">
         <ItemData ItemOID="CO.STUDYID" Value="CDISCPILOT01"/>
         <ItemData ItemOID="CO.DOMAIN" Value="CO"/>
         <ItemData ItemOID="CO.RDOMAIN" Value="AE"/>
         <ItemData ItemOID="CO.USUBJID" Value="01-701-1023"/>
         <ItemData ItemOID="CO.COSEQ" Value="1"/>
         <ItemData ItemOID="CO.IDVAR" Value="AESEQ"/>
         <ItemData ItemOID="CO.IDVARVAL" Value="2"/>
         <ItemData ItemOID="CO.COREF" IsNull="Yes"/>
         <ItemData ItemOID="CO.COVAL" Value="related to record 1 in domain DS"/>
         <ItemData ItemOID="CO.COEVAL" Value="PRINCIPAL INVESTIGATOR"/>
      </ItemGroupData>
      <ItemGroupData data:ItemGroupDataSeq="2" ItemGroupOID="CO">
         <ItemData ItemOID="CO.STUDYID" Value="CDISCPILOT01"/>
         <ItemData ItemOID="CO.DOMAIN" Value="CO"/>
         <ItemData ItemOID="CO.RDOMAIN" Value="AE"/>
         <ItemData ItemOID="CO.USUBJID" Value="01-701-1047"/>
         <ItemData ItemOID="CO.COSEQ" Value="2"/>
         <ItemData ItemOID="CO.IDVAR" Value="AESEQ"/>
         <ItemData ItemOID="CO.IDVARVAL" Value="4"/>
         <ItemData ItemOID="CO.COREF" IsNull="Yes"/>
         <ItemData ItemOID="CO.COVAL"
                   Value="related to record 1 in domain DS. The quick brown fox jumps over the lazy dog and can easily have more than twohundred characters which was the upper limit that SAS Transport 5 could be dealing with. Lorem ipsum dolor sit amet, consectetur adipisicing elit, sed do eiusmod tempor incididunt ut labore et dolore magna aliqua. Ut enim ad minim veniam, quis nostrud exercitation ullamco laboris nisi ut aliquip ex ea commodo consequat. Duis aute irure dolor in reprehenderit in voluptate velit esse cillum dolore eu fugiat nulla pariatur. Excepteur sint occaecat cupidatat non proident, sunt in culpa qui officia deserunt mollit anim id est laborum"/>
         <ItemData ItemOID="CO.COEVAL" Value="PRINCIPAL INVESTIGATOR"/>
      </ItemGroupData>
      <ItemGroupData data:ItemGroupDataSeq="3" ItemGroupOID="CO">
         <ItemData ItemOID="CO.STUDYID" Value="CDISCPILOT01"/>
         <ItemData ItemOID="CO.DOMAIN" Value="CO"/>
         <ItemData ItemOID="CO.RDOMAIN" Value="AE"/>
         <ItemData ItemOID="CO.USUBJID" Value="01-701-1111"/>
         <ItemData ItemOID="CO.COSEQ" Value="3"/>
         <ItemData ItemOID="CO.IDVAR" Value="AESEQ"/>
         <ItemData ItemOID="CO.IDVARVAL" Value="7"/>
         <ItemData ItemOID="CO.COREF" IsNull="Yes"/>
         <ItemData ItemOID="CO.COVAL" Value="related to record 1 in domain DS"/>
         <ItemData ItemOID="CO.COEVAL" Value="PRINCIPAL INVESTIGATOR"/>
      </ItemGroupData>
      <ItemGroupData data:ItemGroupDataSeq="4" ItemGroupOID="CO">
         <ItemData ItemOID="CO.STUDYID" Value="CDISCPILOT01"/>
         <ItemData ItemOID="CO.DOMAIN" Value="CO"/>
         <ItemData ItemOID="CO.RDOMAIN" Value="AE"/>
         <ItemData ItemOID="CO.USUBJID" Value="01-701-1115"/>
         <ItemData ItemOID="CO.COSEQ" Value="4"/>
         <ItemData ItemOID="CO.IDVAR" Value="AESEQ"/>
         <ItemData ItemOID="CO.IDVARVAL" Value="7"/>
         <ItemData ItemOID="CO.COREF" IsNull="Yes"/>
         <ItemData ItemOID="CO.COVAL" Value="related to record 1 in domain DS"/>
         <ItemData ItemOID="CO.COEVAL" Value="PRINCIPAL INVESTIGATOR"/>
      </ItemGroupData>
      <ItemGroupData data:ItemGroupDataSeq="5" ItemGroupOID="CO">
         <ItemData ItemOID="CO.STUDYID" Value="CDISCPILOT01"/>
         <ItemData ItemOID="CO.DOMAIN" Value="CO"/>
         <ItemData ItemOID="CO.RDOMAIN" Value="AE"/>
         <ItemData ItemOID="CO.USUBJID" Value="01-701-1146"/>
         <ItemData ItemOID="CO.COSEQ" Value="5"/>
         <ItemData ItemOID="CO.IDVAR" Value="AESEQ"/>
         <ItemData ItemOID="CO.IDVARVAL" Value="6"/>
         <ItemData ItemOID="CO.COREF" IsNull="Yes"/>
         <ItemData ItemOID="CO.COVAL" Value="related to record 1 in domain DS"/>
         <ItemData ItemOID="CO.COEVAL" Value="PRINCIPAL INVESTIGATOR"/>
      </ItemGroupData>
      <ItemGroupData data:ItemGroupDataSeq="6" ItemGroupOID="CO">
         <ItemData ItemOID="CO.STUDYID" Value="CDISCPILOT01"/>
         <ItemData ItemOID="CO.DOMAIN" Value="CO"/>
         <ItemData ItemOID="CO.RDOMAIN" Value="AE"/>
         <ItemData ItemOID="CO.USUBJID" Value="01-701-1146"/>
         <ItemData ItemOID="CO.COSEQ" Value="6"/>
         <ItemData ItemOID="CO.IDVAR" Value="AESEQ"/>
         <ItemData ItemOID="CO.IDVARVAL" Value="8"/>
         <ItemData ItemOID="CO.COREF" IsNull="Yes"/>
         <ItemData ItemOID="CO.COVAL" Value="related to record 1 in domain DS"/>
         <ItemData ItemOID="CO.COEVAL" Value="PRINCIPAL INVESTIGATOR"/>
      </ItemGroupData>
      <ItemGroupData data:ItemGroupDataSeq="7" ItemGroupOID="CO">
         <ItemData ItemOID="CO.STUDYID" Value="CDISCPILOT01"/>
         <ItemData ItemOID="CO.DOMAIN" Value="CO"/>
         <ItemData ItemOID="CO.RDOMAIN" Value="AE"/>
         <ItemData ItemOID="CO.USUBJID" Value="01-701-1180"/>
         <ItemData ItemOID="CO.COSEQ" Value="7"/>
         <ItemData ItemOID="CO.IDVAR" Value="AESEQ"/>
         <ItemData ItemOID="CO.IDVARVAL" Value="9"/>
         <ItemData ItemOID="CO.COREF" IsNull="Yes"/>
         <ItemData ItemOID="CO.COVAL" Value="related to record 1 in domain DS"/>
         <ItemData ItemOID="CO.COEVAL" Value="PRINCIPAL INVESTIGATOR"/>
      </ItemGroupData>
      <ItemGroupData data:ItemGroupDataSeq="8" ItemGroupOID="CO">
         <ItemData ItemOID="CO.STUDYID" Value="CDISCPILOT01"/>
         <ItemData ItemOID="CO.DOMAIN" Value="CO"/>
         <ItemData ItemOID="CO.RDOMAIN" Value="AE"/>
         <ItemData ItemOID="CO.USUBJID" Value="01-701-1181"/>
         <ItemData ItemOID="CO.COSEQ" Value="8"/>
         <ItemData ItemOID="CO.IDVAR" Value="AESEQ"/>
         <ItemData ItemOID="CO.IDVARVAL" Value="1"/>
         <ItemData ItemOID="CO.COREF" IsNull="Yes"/>
         <ItemData ItemOID="CO.COVAL" Value="related to record 1 in domain DS"/>
         <ItemData ItemOID="CO.COEVAL" Value="PRINCIPAL INVESTIGATOR"/>
      </ItemGroupData>
      <ItemGroupData data:ItemGroupDataSeq="9" ItemGroupOID="CO">
         <ItemData ItemOID="CO.STUDYID" Value="CDISCPILOT01"/>
         <ItemData ItemOID="CO.DOMAIN" Value="CO"/>
         <ItemData ItemOID="CO.RDOMAIN" Value="AE"/>
         <ItemData ItemOID="CO.USUBJID" Value="01-701-1188"/>
         <ItemData ItemOID="CO.COSEQ" Value="9"/>
         <ItemData ItemOID="CO.IDVAR" Value="AESEQ"/>
         <ItemData ItemOID="CO.IDVARVAL" Value="7"/>
         <ItemData ItemOID="CO.COREF" IsNull="Yes"/>
         <ItemData ItemOID="CO.COVAL" Value="related to record 1 in domain DS"/>
         <ItemData ItemOID="CO.COEVAL" Value="PRINCIPAL INVESTIGATOR"/>
      </ItemGroupData>
      <ItemGroupData data:ItemGroupDataSeq="10" ItemGroupOID="CO">
         <ItemData ItemOID="CO.STUDYID" Value="CDISCPILOT01"/>
         <ItemData ItemOID="CO.DOMAIN" Value="CO"/>
         <ItemData ItemOID="CO.RDOMAIN" Value="AE"/>
         <ItemData ItemOID="CO.USUBJID" Value="01-701-1211"/>
         <ItemData ItemOID="CO.COSEQ" Value="10"/>
         <ItemData ItemOID="CO.IDVAR" Value="AESEQ"/>
         <ItemData ItemOID="CO.IDVARVAL" Value="9"/>
         <ItemData ItemOID="CO.COREF" IsNull="Yes"/>
         <ItemData ItemOID="CO.COVAL" Value="related to record 1 in domain DS"/>
         <ItemData ItemOID="CO.COEVAL" Value="PRINCIPAL INVESTIGATOR"/>
      </ItemGroupData>
      <ItemGroupData data:ItemGroupDataSeq="11" ItemGroupOID="CO">
         <ItemData ItemOID="CO.STUDYID" Value="CDISCPILOT01"/>
         <ItemData ItemOID="CO.DOMAIN" Value="CO"/>
         <ItemData ItemOID="CO.RDOMAIN" Value="AE"/>
         <ItemData ItemOID="CO.USUBJID" Value="01-701-1294"/>
         <ItemData ItemOID="CO.COSEQ" Value="11"/>
         <ItemData ItemOID="CO.IDVAR" Value="AESEQ"/>
         <ItemData ItemOID="CO.IDVARVAL" Value="6"/>
         <ItemData ItemOID="CO.COREF" IsNull="Yes"/>
         <ItemData ItemOID="CO.COVAL" Value="related to record 1 in domain DS"/>
         <ItemData ItemOID="CO.COEVAL" Value="PRINCIPAL INVESTIGATOR"/>
      </ItemGroupData>
      <ItemGroupData data:ItemGroupDataSeq="12" ItemGroupOID="CO">
         <ItemData ItemOID="CO.STUDYID" Value="CDISCPILOT01"/>
         <ItemData ItemOID="CO.DOMAIN" Value="CO"/>
         <ItemData ItemOID="CO.RDOMAIN" Value="AE"/>
         <ItemData ItemOID="CO.USUBJID" Value="01-701-1302"/>
         <ItemData ItemOID="CO.COSEQ" Value="12"/>
         <ItemData ItemOID="CO.IDVAR" Value="AESEQ"/>
         <ItemData ItemOID="CO.IDVARVAL" Value="8"/>
         <ItemData ItemOID="CO.COREF" IsNull="Yes"/>
         <ItemData ItemOID="CO.COVAL" Value="related to record 1 in domain DS"/>
         <ItemData ItemOID="CO.COEVAL" Value="PRINCIPAL INVESTIGATOR"/>
      </ItemGroupData>
      <ItemGroupData data:ItemGroupDataSeq="13" ItemGroupOID="CO">
         <ItemData ItemOID="CO.STUDYID" Value="CDISCPILOT01"/>
         <ItemData ItemOID="CO.DOMAIN" Value="CO"/>
         <ItemData ItemOID="CO.RDOMAIN" Value="AE"/>
         <ItemData ItemOID="CO.USUBJID" Value="01-701-1302"/>
         <ItemData ItemOID="CO.COSEQ" Value="13"/>
         <ItemData ItemOID="CO.IDVAR" Value="AESEQ"/>
         <ItemData ItemOID="CO.IDVARVAL" Value="18"/>
         <ItemData ItemOID="CO.COREF" IsNull="Yes"/>
         <ItemData ItemOID="CO.COVAL" Value="related to record 1 in domain DS"/>
         <ItemData ItemOID="CO.COEVAL" Value="PRINCIPAL INVESTIGATOR"/>
      </ItemGroupData>
      <ItemGroupData data:ItemGroupDataSeq="14" ItemGroupOID="CO">
         <ItemData ItemOID="CO.STUDYID" Value="CDISCPILOT01"/>
         <ItemData ItemOID="CO.DOMAIN" Value="CO"/>
         <ItemData ItemOID="CO.RDOMAIN" Value="AE"/>
         <ItemData ItemOID="CO.USUBJID" Value="01-701-1341"/>
         <ItemData ItemOID="CO.COSEQ" Value="14"/>
         <ItemData ItemOID="CO.IDVAR" Value="AESEQ"/>
         <ItemData ItemOID="CO.IDVARVAL" Value="5"/>
         <ItemData ItemOID="CO.COREF" IsNull="Yes"/>
         <ItemData ItemOID="CO.COVAL" Value="related to record 1 in domain DS"/>
         <ItemData ItemOID="CO.COEVAL" Value="PRINCIPAL INVESTIGATOR"/>
      </ItemGroupData>
      <ItemGroupData data:ItemGroupDataSeq="15" ItemGroupOID="CO">
         <ItemData ItemOID="CO.STUDYID" Value="CDISCPILOT01"/>
         <ItemData ItemOID="CO.DOMAIN" Value="CO"/>
         <ItemData ItemOID="CO.RDOMAIN" Value="AE"/>
         <ItemData ItemOID="CO.USUBJID" Value="01-701-1444"/>
         <ItemData ItemOID="CO.COSEQ" Value="15"/>
         <ItemData ItemOID="CO.IDVAR" Value="AESEQ"/>
         <ItemData ItemOID="CO.IDVARVAL" Value="7"/>
         <ItemData ItemOID="CO.COREF" IsNull="Yes"/>
         <ItemData ItemOID="CO.COVAL" Value="related to record 1 in domain DS"/>
         <ItemData ItemOID="CO.COEVAL" Value="PRINCIPAL INVESTIGATOR"/>
      </ItemGroupData>
      <ItemGroupData data:ItemGroupDataSeq="16" ItemGroupOID="CO">
         <ItemData ItemOID="CO.STUDYID" Value="CDISCPILOT01"/>
         <ItemData ItemOID="CO.DOMAIN" Value="CO"/>
         <ItemData ItemOID="CO.RDOMAIN" Value="AE"/>
         <ItemData ItemOID="CO.USUBJID" Value="01-703-1076"/>
         <ItemData ItemOID="CO.COSEQ" Value="16"/>
         <ItemData ItemOID="CO.IDVAR" Value="AESEQ"/>
         <ItemData ItemOID="CO.IDVARVAL" Value="4"/>
         <ItemData ItemOID="CO.COREF" IsNull="Yes"/>
         <ItemData ItemOID="CO.COVAL" Value="related to record 1 in domain DS"/>
         <ItemData ItemOID="CO.COEVAL" Value="PRINCIPAL INVESTIGATOR"/>
      </ItemGroupData>
      <ItemGroupData data:ItemGroupDataSeq="17" ItemGroupOID="CO">
         <ItemData ItemOID="CO.STUDYID" Value="CDISCPILOT01"/>
         <ItemData ItemOID="CO.DOMAIN" Value="CO"/>
         <ItemData ItemOID="CO.RDOMAIN" Value="AE"/>
         <ItemData ItemOID="CO.USUBJID" Value="01-703-1076"/>
         <ItemData ItemOID="CO.COSEQ" Value="17"/>
         <ItemData ItemOID="CO.IDVAR" Value="AESEQ"/>
         <ItemData ItemOID="CO.IDVARVAL" Value="7"/>
         <ItemData ItemOID="CO.COREF" IsNull="Yes"/>
         <ItemData ItemOID="CO.COVAL" Value="related to record 1 in domain DS"/>
         <ItemData ItemOID="CO.COEVAL" Value="PRINCIPAL INVESTIGATOR"/>
      </ItemGroupData>
      <ItemGroupData data:ItemGroupDataSeq="18" ItemGroupOID="CO">
         <ItemData ItemOID="CO.STUDYID" Value="CDISCPILOT01"/>
         <ItemData ItemOID="CO.DOMAIN" Value="CO"/>
         <ItemData ItemOID="CO.RDOMAIN" Value="AE"/>
         <ItemData ItemOID="CO.USUBJID" Value="01-703-1086"/>
         <ItemData ItemOID="CO.COSEQ" Value="18"/>
         <ItemData ItemOID="CO.IDVAR" Value="AESEQ"/>
         <ItemData ItemOID="CO.IDVARVAL" Value="1"/>
         <ItemData ItemOID="CO.COREF" IsNull="Yes"/>
         <ItemData ItemOID="CO.COVAL" Value="related to record 1 in domain DS"/>
         <ItemData ItemOID="CO.COEVAL" Value="PRINCIPAL INVESTIGATOR"/>
      </ItemGroupData>
      <ItemGroupData data:ItemGroupDataSeq="19" ItemGroupOID="CO">
         <ItemData ItemOID="CO.STUDYID" Value="CDISCPILOT01"/>
         <ItemData ItemOID="CO.DOMAIN" Value="CO"/>
         <ItemData ItemOID="CO.RDOMAIN" Value="AE"/>
         <ItemData ItemOID="CO.USUBJID" Value="01-703-1086"/>
         <ItemData ItemOID="CO.COSEQ" Value="19"/>
         <ItemData ItemOID="CO.IDVAR" Value="AESEQ"/>
         <ItemData ItemOID="CO.IDVARVAL" Value="2"/>
         <ItemData ItemOID="CO.COREF" IsNull="Yes"/>
         <ItemData ItemOID="CO.COVAL" Value="related to record 1 in domain DS"/>
         <ItemData ItemOID="CO.COEVAL" Value="PRINCIPAL INVESTIGATOR"/>
      </ItemGroupData>
      <ItemGroupData data:ItemGroupDataSeq="20" ItemGroupOID="CO">
         <ItemData ItemOID="CO.STUDYID" Value="CDISCPILOT01"/>
         <ItemData ItemOID="CO.DOMAIN" Value="CO"/>
         <ItemData ItemOID="CO.RDOMAIN" Value="AE"/>
         <ItemData ItemOID="CO.USUBJID" Value="01-703-1086"/>
         <ItemData ItemOID="CO.COSEQ" Value="20"/>
         <ItemData ItemOID="CO.IDVAR" Value="AESEQ"/>
         <ItemData ItemOID="CO.IDVARVAL" Value="3"/>
         <ItemData ItemOID="CO.COREF" IsNull="Yes"/>
         <ItemData ItemOID="CO.COVAL" Value="related to record 1 in domain DS"/>
         <ItemData ItemOID="CO.COEVAL" Value="PRINCIPAL INVESTIGATOR"/>
      </ItemGroupData>
      <ItemGroupData data:ItemGroupDataSeq="21" ItemGroupOID="CO">
         <ItemData ItemOID="CO.STUDYID" Value="CDISCPILOT01"/>
         <ItemData ItemOID="CO.DOMAIN" Value="CO"/>
         <ItemData ItemOID="CO.RDOMAIN" Value="AE"/>
         <ItemData ItemOID="CO.USUBJID" Value="01-703-1086"/>
         <ItemData ItemOID="CO.COSEQ" Value="21"/>
         <ItemData ItemOID="CO.IDVAR" Value="AESEQ"/>
         <ItemData ItemOID="CO.IDVARVAL" Value="6"/>
         <ItemData ItemOID="CO.COREF" IsNull="Yes"/>
         <ItemData ItemOID="CO.COVAL" Value="related to record 1 in domain DS"/>
         <ItemData ItemOID="CO.COEVAL" Value="PRINCIPAL INVESTIGATOR"/>
      </ItemGroupData>
      <ItemGroupData data:ItemGroupDataSeq="22" ItemGroupOID="CO">
         <ItemData ItemOID="CO.STUDYID" Value="CDISCPILOT01"/>
         <ItemData ItemOID="CO.DOMAIN" Value="CO"/>
         <ItemData ItemOID="CO.RDOMAIN" Value="AE"/>
         <ItemData ItemOID="CO.USUBJID" Value="01-703-1119"/>
         <ItemData ItemOID="CO.COSEQ" Value="22"/>
         <ItemData ItemOID="CO.IDVAR" Value="AESEQ"/>
         <ItemData ItemOID="CO.IDVARVAL" Value="3"/>
         <ItemData ItemOID="CO.COREF" IsNull="Yes"/>
         <ItemData ItemOID="CO.COVAL" Value="related to record 1 in domain DS"/>
         <ItemData ItemOID="CO.COEVAL" Value="PRINCIPAL INVESTIGATOR"/>
      </ItemGroupData>
      <ItemGroupData data:ItemGroupDataSeq="23" ItemGroupOID="CO">
         <ItemData ItemOID="CO.STUDYID" Value="CDISCPILOT01"/>
         <ItemData ItemOID="CO.DOMAIN" Value="CO"/>
         <ItemData ItemOID="CO.RDOMAIN" Value="AE"/>
         <ItemData ItemOID="CO.USUBJID" Value="01-703-1119"/>
         <ItemData ItemOID="CO.COSEQ" Value="23"/>
         <ItemData ItemOID="CO.IDVAR" Value="AESEQ"/>
         <ItemData ItemOID="CO.IDVARVAL" Value="4"/>
         <ItemData ItemOID="CO.COREF" IsNull="Yes"/>
         <ItemData ItemOID="CO.COVAL" Value="related to record 1 in domain DS"/>
         <ItemData ItemOID="CO.COEVAL" Value="PRINCIPAL INVESTIGATOR"/>
      </ItemGroupData>
      <ItemGroupData data:ItemGroupDataSeq="24" ItemGroupOID="CO">
         <ItemData ItemOID="CO.STUDYID" Value="CDISCPILOT01"/>
         <ItemData ItemOID="CO.DOMAIN" Value="CO"/>
         <ItemData ItemOID="CO.RDOMAIN" Value="AE"/>
         <ItemData ItemOID="CO.USUBJID" Value="01-703-1182"/>
         <ItemData ItemOID="CO.COSEQ" Value="24"/>
         <ItemData ItemOID="CO.IDVAR" Value="AESEQ"/>
         <ItemData ItemOID="CO.IDVARVAL" Value="3"/>
         <ItemData ItemOID="CO.COREF" IsNull="Yes"/>
         <ItemData ItemOID="CO.COVAL" Value="related to record 1 in domain DS"/>
         <ItemData ItemOID="CO.COEVAL" Value="PRINCIPAL INVESTIGATOR"/>
      </ItemGroupData>
      <ItemGroupData data:ItemGroupDataSeq="25" ItemGroupOID="CO">
         <ItemData ItemOID="CO.STUDYID" Value="CDISCPILOT01"/>
         <ItemData ItemOID="CO.DOMAIN" Value="CO"/>
         <ItemData ItemOID="CO.RDOMAIN" Value="AE"/>
         <ItemData ItemOID="CO.USUBJID" Value="01-703-1182"/>
         <ItemData ItemOID="CO.COSEQ" Value="25"/>
         <ItemData ItemOID="CO.IDVAR" Value="AESEQ"/>
         <ItemData ItemOID="CO.IDVARVAL" Value="4"/>
         <ItemData ItemOID="CO.COREF" IsNull="Yes"/>
         <ItemData ItemOID="CO.COVAL" Value="related to record 1 in domain DS"/>
         <ItemData ItemOID="CO.COEVAL" Value="PRINCIPAL INVESTIGATOR"/>
      </ItemGroupData>
      <ItemGroupData data:ItemGroupDataSeq="26" ItemGroupOID="CO">
         <ItemData ItemOID="CO.STUDYID" Value="CDISCPILOT01"/>
         <ItemData ItemOID="CO.DOMAIN" Value="CO"/>
         <ItemData ItemOID="CO.RDOMAIN" Value="AE"/>
         <ItemData ItemOID="CO.USUBJID" Value="01-703-1258"/>
         <ItemData ItemOID="CO.COSEQ" Value="26"/>
         <ItemData ItemOID="CO.IDVAR" Value="AESEQ"/>
         <ItemData ItemOID="CO.IDVARVAL" Value="4"/>
         <ItemData ItemOID="CO.COREF" IsNull="Yes"/>
         <ItemData ItemOID="CO.COVAL" Value="related to record 1 in domain DS"/>
         <ItemData ItemOID="CO.COEVAL" Value="PRINCIPAL INVESTIGATOR"/>
      </ItemGroupData>
      <ItemGroupData data:ItemGroupDataSeq="27" ItemGroupOID="CO">
         <ItemData ItemOID="CO.STUDYID" Value="CDISCPILOT01"/>
         <ItemData ItemOID="CO.DOMAIN" Value="CO"/>
         <ItemData ItemOID="CO.RDOMAIN" Value="AE"/>
         <ItemData ItemOID="CO.USUBJID" Value="01-703-1258"/>
         <ItemData ItemOID="CO.COSEQ" Value="27"/>
         <ItemData ItemOID="CO.IDVAR" Value="AESEQ"/>
         <ItemData ItemOID="CO.IDVARVAL" Value="6"/>
         <ItemData ItemOID="CO.COREF" IsNull="Yes"/>
         <ItemData ItemOID="CO.COVAL" Value="related to record 1 in domain DS"/>
         <ItemData ItemOID="CO.COEVAL" Value="PRINCIPAL INVESTIGATOR"/>
      </ItemGroupData>
      <ItemGroupData data:ItemGroupDataSeq="28" ItemGroupOID="CO">
         <ItemData ItemOID="CO.STUDYID" Value="CDISCPILOT01"/>
         <ItemData ItemOID="CO.DOMAIN" Value="CO"/>
         <ItemData ItemOID="CO.RDOMAIN" Value="AE"/>
         <ItemData ItemOID="CO.USUBJID" Value="01-703-1258"/>
         <ItemData ItemOID="CO.COSEQ" Value="28"/>
         <ItemData ItemOID="CO.IDVAR" Value="AESEQ"/>
         <ItemData ItemOID="CO.IDVARVAL" Value="7"/>
         <ItemData ItemOID="CO.COREF" IsNull="Yes"/>
         <ItemData ItemOID="CO.COVAL" Value="related to record 1 in domain DS"/>
         <ItemData ItemOID="CO.COEVAL" Value="PRINCIPAL INVESTIGATOR"/>
      </ItemGroupData>
      <ItemGroupData data:ItemGroupDataSeq="29" ItemGroupOID="CO">
         <ItemData ItemOID="CO.STUDYID" Value="CDISCPILOT01"/>
         <ItemData ItemOID="CO.DOMAIN" Value="CO"/>
         <ItemData ItemOID="CO.RDOMAIN" Value="AE"/>
         <ItemData ItemOID="CO.USUBJID" Value="01-703-1403"/>
         <ItemData ItemOID="CO.COSEQ" Value="29"/>
         <ItemData ItemOID="CO.IDVAR" Value="AESEQ"/>
         <ItemData ItemOID="CO.IDVARVAL" Value="2"/>
         <ItemData ItemOID="CO.COREF" IsNull="Yes"/>
         <ItemData ItemOID="CO.COVAL" Value="related to record 1 in domain DS"/>
         <ItemData ItemOID="CO.COEVAL" Value="PRINCIPAL INVESTIGATOR"/>
      </ItemGroupData>
      <ItemGroupData data:ItemGroupDataSeq="30" ItemGroupOID="CO">
         <ItemData ItemOID="CO.STUDYID" Value="CDISCPILOT01"/>
         <ItemData ItemOID="CO.DOMAIN" Value="CO"/>
         <ItemData ItemOID="CO.RDOMAIN" Value="AE"/>
         <ItemData ItemOID="CO.USUBJID" Value="01-704-1008"/>
         <ItemData ItemOID="CO.COSEQ" Value="30"/>
         <ItemData ItemOID="CO.IDVAR" Value="AESEQ"/>
         <ItemData ItemOID="CO.IDVARVAL" Value="3"/>
         <ItemData ItemOID="CO.COREF" IsNull="Yes"/>
         <ItemData ItemOID="CO.COVAL" Value="related to record 1 in domain DS"/>
         <ItemData ItemOID="CO.COEVAL" Value="PRINCIPAL INVESTIGATOR"/>
      </ItemGroupData>
      <ItemGroupData data:ItemGroupDataSeq="31" ItemGroupOID="CO">
         <ItemData ItemOID="CO.STUDYID" Value="CDISCPILOT01"/>
         <ItemData ItemOID="CO.DOMAIN" Value="CO"/>
         <ItemData ItemOID="CO.RDOMAIN" Value="AE"/>
         <ItemData ItemOID="CO.USUBJID" Value="01-704-1017"/>
         <ItemData ItemOID="CO.COSEQ" Value="31"/>
         <ItemData ItemOID="CO.IDVAR" Value="AESEQ"/>
         <ItemData ItemOID="CO.IDVARVAL" Value="5"/>
         <ItemData ItemOID="CO.COREF" IsNull="Yes"/>
         <ItemData ItemOID="CO.COVAL" Value="related to record 1 in domain DS"/>
         <ItemData ItemOID="CO.COEVAL" Value="PRINCIPAL INVESTIGATOR"/>
      </ItemGroupData>
      <ItemGroupData data:ItemGroupDataSeq="32" ItemGroupOID="CO">
         <ItemData ItemOID="CO.STUDYID" Value="CDISCPILOT01"/>
         <ItemData ItemOID="CO.DOMAIN" Value="CO"/>
         <ItemData ItemOID="CO.RDOMAIN" Value="AE"/>
         <ItemData ItemOID="CO.USUBJID" Value="01-704-1017"/>
         <ItemData ItemOID="CO.COSEQ" Value="32"/>
         <ItemData ItemOID="CO.IDVAR" Value="AESEQ"/>
         <ItemData ItemOID="CO.IDVARVAL" Value="7"/>
         <ItemData ItemOID="CO.COREF" IsNull="Yes"/>
         <ItemData ItemOID="CO.COVAL" Value="related to record 1 in domain DS"/>
         <ItemData ItemOID="CO.COEVAL" Value="PRINCIPAL INVESTIGATOR"/>
      </ItemGroupData>
      <ItemGroupData data:ItemGroupDataSeq="33" ItemGroupOID="CO">
         <ItemData ItemOID="CO.STUDYID" Value="CDISCPILOT01"/>
         <ItemData ItemOID="CO.DOMAIN" Value="CO"/>
         <ItemData ItemOID="CO.RDOMAIN" Value="AE"/>
         <ItemData ItemOID="CO.USUBJID" Value="01-704-1025"/>
         <ItemData ItemOID="CO.COSEQ" Value="33"/>
         <ItemData ItemOID="CO.IDVAR" Value="AESEQ"/>
         <ItemData ItemOID="CO.IDVARVAL" Value="4"/>
         <ItemData ItemOID="CO.COREF" IsNull="Yes"/>
         <ItemData ItemOID="CO.COVAL" Value="related to record 1 in domain DS"/>
         <ItemData ItemOID="CO.COEVAL" Value="PRINCIPAL INVESTIGATOR"/>
      </ItemGroupData>
      <ItemGroupData data:ItemGroupDataSeq="34" ItemGroupOID="CO">
         <ItemData ItemOID="CO.STUDYID" Value="CDISCPILOT01"/>
         <ItemData ItemOID="CO.DOMAIN" Value="CO"/>
         <ItemData ItemOID="CO.RDOMAIN" Value="AE"/>
         <ItemData ItemOID="CO.USUBJID" Value="01-704-1025"/>
         <ItemData ItemOID="CO.COSEQ" Value="34"/>
         <ItemData ItemOID="CO.IDVAR" Value="AESEQ"/>
         <ItemData ItemOID="CO.IDVARVAL" Value="6"/>
         <ItemData ItemOID="CO.COREF" IsNull="Yes"/>
         <ItemData ItemOID="CO.COVAL" Value="related to record 1 in domain DS"/>
         <ItemData ItemOID="CO.COEVAL" Value="PRINCIPAL INVESTIGATOR"/>
      </ItemGroupData>
      <ItemGroupData data:ItemGroupDataSeq="35" ItemGroupOID="CO">
         <ItemData ItemOID="CO.STUDYID" Value="CDISCPILOT01"/>
         <ItemData ItemOID="CO.DOMAIN" Value="CO"/>
         <ItemData ItemOID="CO.RDOMAIN" Value="AE"/>
         <ItemData ItemOID="CO.USUBJID" Value="01-704-1065"/>
         <ItemData ItemOID="CO.COSEQ" Value="35"/>
         <ItemData ItemOID="CO.IDVAR" Value="AESEQ"/>
         <ItemData ItemOID="CO.IDVARVAL" Value="4"/>
         <ItemData ItemOID="CO.COREF" IsNull="Yes"/>
         <ItemData ItemOID="CO.COVAL" Value="related to record 1 in domain DS"/>
         <ItemData ItemOID="CO.COEVAL" Value="PRINCIPAL INVESTIGATOR"/>
      </ItemGroupData>
      <ItemGroupData data:ItemGroupDataSeq="36" ItemGroupOID="CO">
         <ItemData ItemOID="CO.STUDYID" Value="CDISCPILOT01"/>
         <ItemData ItemOID="CO.DOMAIN" Value="CO"/>
         <ItemData ItemOID="CO.RDOMAIN" Value="AE"/>
         <ItemData ItemOID="CO.USUBJID" Value="01-704-1074"/>
         <ItemData ItemOID="CO.COSEQ" Value="36"/>
         <ItemData ItemOID="CO.IDVAR" Value="AESEQ"/>
         <ItemData ItemOID="CO.IDVARVAL" Value="2"/>
         <ItemData ItemOID="CO.COREF" IsNull="Yes"/>
         <ItemData ItemOID="CO.COVAL" Value="related to record 1 in domain DS"/>
         <ItemData ItemOID="CO.COEVAL" Value="PRINCIPAL INVESTIGATOR"/>
      </ItemGroupData>
      <ItemGroupData data:ItemGroupDataSeq="37" ItemGroupOID="CO">
         <ItemData ItemOID="CO.STUDYID" Value="CDISCPILOT01"/>
         <ItemData ItemOID="CO.DOMAIN" Value="CO"/>
         <ItemData ItemOID="CO.RDOMAIN" Value="AE"/>
         <ItemData ItemOID="CO.USUBJID" Value="01-704-1093"/>
         <ItemData ItemOID="CO.COSEQ" Value="37"/>
         <ItemData ItemOID="CO.IDVAR" Value="AESEQ"/>
         <ItemData ItemOID="CO.IDVARVAL" Value="3"/>
         <ItemData ItemOID="CO.COREF" IsNull="Yes"/>
         <ItemData ItemOID="CO.COVAL" Value="related to record 1 in domain DS"/>
         <ItemData ItemOID="CO.COEVAL" Value="PRINCIPAL INVESTIGATOR"/>
      </ItemGroupData>
      <ItemGroupData data:ItemGroupDataSeq="38" ItemGroupOID="CO">
         <ItemData ItemOID="CO.STUDYID" Value="CDISCPILOT01"/>
         <ItemData ItemOID="CO.DOMAIN" Value="CO"/>
         <ItemData ItemOID="CO.RDOMAIN" Value="AE"/>
         <ItemData ItemOID="CO.USUBJID" Value="01-704-1120"/>
         <ItemData ItemOID="CO.COSEQ" Value="38"/>
         <ItemData ItemOID="CO.IDVAR" Value="AESEQ"/>
         <ItemData ItemOID="CO.IDVARVAL" Value="1"/>
         <ItemData ItemOID="CO.COREF" IsNull="Yes"/>
         <ItemData ItemOID="CO.COVAL" Value="related to record 1 in domain DS"/>
         <ItemData ItemOID="CO.COEVAL" Value="PRINCIPAL INVESTIGATOR"/>
      </ItemGroupData>
      <ItemGroupData data:ItemGroupDataSeq="39" ItemGroupOID="CO">
         <ItemData ItemOID="CO.STUDYID" Value="CDISCPILOT01"/>
         <ItemData ItemOID="CO.DOMAIN" Value="CO"/>
         <ItemData ItemOID="CO.RDOMAIN" Value="AE"/>
         <ItemData ItemOID="CO.USUBJID" Value="01-704-1120"/>
         <ItemData ItemOID="CO.COSEQ" Value="39"/>
         <ItemData ItemOID="CO.IDVAR" Value="AESEQ"/>
         <ItemData ItemOID="CO.IDVARVAL" Value="3"/>
         <ItemData ItemOID="CO.COREF" IsNull="Yes"/>
         <ItemData ItemOID="CO.COVAL" Value="related to record 1 in domain DS"/>
         <ItemData ItemOID="CO.COEVAL" Value="PRINCIPAL INVESTIGATOR"/>
      </ItemGroupData>
      <ItemGroupData data:ItemGroupDataSeq="40" ItemGroupOID="CO">
         <ItemData ItemOID="CO.STUDYID" Value="CDISCPILOT01"/>
         <ItemData ItemOID="CO.DOMAIN" Value="CO"/>
         <ItemData ItemOID="CO.RDOMAIN" Value="AE"/>
         <ItemData ItemOID="CO.USUBJID" Value="01-704-1241"/>
         <ItemData ItemOID="CO.COSEQ" Value="40"/>
         <ItemData ItemOID="CO.IDVAR" Value="AESEQ"/>
         <ItemData ItemOID="CO.IDVARVAL" Value="1"/>
         <ItemData ItemOID="CO.COREF" IsNull="Yes"/>
         <ItemData ItemOID="CO.COVAL" Value="related to record 1 in domain DS"/>
         <ItemData ItemOID="CO.COEVAL" Value="PRINCIPAL INVESTIGATOR"/>
      </ItemGroupData>
      <ItemGroupData data:ItemGroupDataSeq="41" ItemGroupOID="CO">
         <ItemData ItemOID="CO.STUDYID" Value="CDISCPILOT01"/>
         <ItemData ItemOID="CO.DOMAIN" Value="CO"/>
         <ItemData ItemOID="CO.RDOMAIN" Value="AE"/>
         <ItemData ItemOID="CO.USUBJID" Value="01-704-1266"/>
         <ItemData ItemOID="CO.COSEQ" Value="41"/>
         <ItemData ItemOID="CO.IDVAR" Value="AESEQ"/>
         <ItemData ItemOID="CO.IDVARVAL" Value="2"/>
         <ItemData ItemOID="CO.COREF" IsNull="Yes"/>
         <ItemData ItemOID="CO.COVAL" Value="related to record 1 in domain DS"/>
         <ItemData ItemOID="CO.COEVAL" Value="PRINCIPAL INVESTIGATOR"/>
      </ItemGroupData>
      <ItemGroupData data:ItemGroupDataSeq="42" ItemGroupOID="CO">
         <ItemData ItemOID="CO.STUDYID" Value="CDISCPILOT01"/>
         <ItemData ItemOID="CO.DOMAIN" Value="CO"/>
         <ItemData ItemOID="CO.RDOMAIN" Value="AE"/>
         <ItemData ItemOID="CO.USUBJID" Value="01-704-1266"/>
         <ItemData ItemOID="CO.COSEQ" Value="42"/>
         <ItemData ItemOID="CO.IDVAR" Value="AESEQ"/>
         <ItemData ItemOID="CO.IDVARVAL" Value="9"/>
         <ItemData ItemOID="CO.COREF" IsNull="Yes"/>
         <ItemData ItemOID="CO.COVAL" Value="related to record 1 in domain DS"/>
         <ItemData ItemOID="CO.COEVAL" Value="PRINCIPAL INVESTIGATOR"/>
      </ItemGroupData>
      <ItemGroupData data:ItemGroupDataSeq="43" ItemGroupOID="CO">
         <ItemData ItemOID="CO.STUDYID" Value="CDISCPILOT01"/>
         <ItemData ItemOID="CO.DOMAIN" Value="CO"/>
         <ItemData ItemOID="CO.RDOMAIN" Value="AE"/>
         <ItemData ItemOID="CO.USUBJID" Value="01-704-1266"/>
         <ItemData ItemOID="CO.COSEQ" Value="43"/>
         <ItemData ItemOID="CO.IDVAR" Value="AESEQ"/>
         <ItemData ItemOID="CO.IDVARVAL" Value="12"/>
         <ItemData ItemOID="CO.COREF" IsNull="Yes"/>
         <ItemData ItemOID="CO.COVAL" Value="related to record 1 in domain DS"/>
         <ItemData ItemOID="CO.COEVAL" Value="PRINCIPAL INVESTIGATOR"/>
      </ItemGroupData>
      <ItemGroupData data:ItemGroupDataSeq="44" ItemGroupOID="CO">
         <ItemData ItemOID="CO.STUDYID" Value="CDISCPILOT01"/>
         <ItemData ItemOID="CO.DOMAIN" Value="CO"/>
         <ItemData ItemOID="CO.RDOMAIN" Value="AE"/>
         <ItemData ItemOID="CO.USUBJID" Value="01-704-1323"/>
         <ItemData ItemOID="CO.COSEQ" Value="44"/>
         <ItemData ItemOID="CO.IDVAR" Value="AESEQ"/>
         <ItemData ItemOID="CO.IDVARVAL" Value="2"/>
         <ItemData ItemOID="CO.COREF" IsNull="Yes"/>
         <ItemData ItemOID="CO.COVAL" Value="related to record 1 in domain DS"/>
         <ItemData ItemOID="CO.COEVAL" Value="PRINCIPAL INVESTIGATOR"/>
      </ItemGroupData>
      <ItemGroupData data:ItemGroupDataSeq="45" ItemGroupOID="CO">
         <ItemData ItemOID="CO.STUDYID" Value="CDISCPILOT01"/>
         <ItemData ItemOID="CO.DOMAIN" Value="CO"/>
         <ItemData ItemOID="CO.RDOMAIN" Value="AE"/>
         <ItemData ItemOID="CO.USUBJID" Value="01-704-1332"/>
         <ItemData ItemOID="CO.COSEQ" Value="45"/>
         <ItemData ItemOID="CO.IDVAR" Value="AESEQ"/>
         <ItemData ItemOID="CO.IDVARVAL" Value="1"/>
         <ItemData ItemOID="CO.COREF" IsNull="Yes"/>
         <ItemData ItemOID="CO.COVAL" Value="related to record 1 in domain DS"/>
         <ItemData ItemOID="CO.COEVAL" Value="PRINCIPAL INVESTIGATOR"/>
      </ItemGroupData>
      <ItemGroupData data:ItemGroupDataSeq="46" ItemGroupOID="CO">
         <ItemData ItemOID="CO.STUDYID" Value="CDISCPILOT01"/>
         <ItemData ItemOID="CO.DOMAIN" Value="CO"/>
         <ItemData ItemOID="CO.RDOMAIN" Value="AE"/>
         <ItemData ItemOID="CO.USUBJID" Value="01-704-1332"/>
         <ItemData ItemOID="CO.COSEQ" Value="46"/>
         <ItemData ItemOID="CO.IDVAR" Value="AESEQ"/>
         <ItemData ItemOID="CO.IDVARVAL" Value="3"/>
         <ItemData ItemOID="CO.COREF" IsNull="Yes"/>
         <ItemData ItemOID="CO.COVAL" Value="related to record 1 in domain DS"/>
         <ItemData ItemOID="CO.COEVAL" Value="PRINCIPAL INVESTIGATOR"/>
      </ItemGroupData>
      <ItemGroupData data:ItemGroupDataSeq="47" ItemGroupOID="CO">
         <ItemData ItemOID="CO.STUDYID" Value="CDISCPILOT01"/>
         <ItemData ItemOID="CO.DOMAIN" Value="CO"/>
         <ItemData ItemOID="CO.RDOMAIN" Value="AE"/>
         <ItemData ItemOID="CO.USUBJID" Value="01-704-1332"/>
         <ItemData ItemOID="CO.COSEQ" Value="47"/>
         <ItemData ItemOID="CO.IDVAR" Value="AESEQ"/>
         <ItemData ItemOID="CO.IDVARVAL" Value="5"/>
         <ItemData ItemOID="CO.COREF" IsNull="Yes"/>
         <ItemData ItemOID="CO.COVAL" Value="related to record 1 in domain DS"/>
         <ItemData ItemOID="CO.COEVAL" Value="PRINCIPAL INVESTIGATOR"/>
      </ItemGroupData>
      <ItemGroupData data:ItemGroupDataSeq="48" ItemGroupOID="CO">
         <ItemData ItemOID="CO.STUDYID" Value="CDISCPILOT01"/>
         <ItemData ItemOID="CO.DOMAIN" Value="CO"/>
         <ItemData ItemOID="CO.RDOMAIN" Value="AE"/>
         <ItemData ItemOID="CO.USUBJID" Value="01-704-1445"/>
         <ItemData ItemOID="CO.COSEQ" Value="48"/>
         <ItemData ItemOID="CO.IDVAR" Value="AESEQ"/>
         <ItemData ItemOID="CO.IDVARVAL" Value="1"/>
         <ItemData ItemOID="CO.COREF" IsNull="Yes"/>
         <ItemData ItemOID="CO.COVAL" Value="related to record 1 in domain DS"/>
         <ItemData ItemOID="CO.COEVAL" Value="PRINCIPAL INVESTIGATOR"/>
      </ItemGroupData>
      <ItemGroupData data:ItemGroupDataSeq="49" ItemGroupOID="CO">
         <ItemData ItemOID="CO.STUDYID" Value="CDISCPILOT01"/>
         <ItemData ItemOID="CO.DOMAIN" Value="CO"/>
         <ItemData ItemOID="CO.RDOMAIN" Value="AE"/>
         <ItemData ItemOID="CO.USUBJID" Value="01-705-1059"/>
         <ItemData ItemOID="CO.COSEQ" Value="49"/>
         <ItemData ItemOID="CO.IDVAR" Value="AESEQ"/>
         <ItemData ItemOID="CO.IDVARVAL" Value="1"/>
         <ItemData ItemOID="CO.COREF" IsNull="Yes"/>
         <ItemData ItemOID="CO.COVAL" Value="related to record 1 in domain DS"/>
         <ItemData ItemOID="CO.COEVAL" Value="PRINCIPAL INVESTIGATOR"/>
      </ItemGroupData>
      <ItemGroupData data:ItemGroupDataSeq="50" ItemGroupOID="CO">
         <ItemData ItemOID="CO.STUDYID" Value="CDISCPILOT01"/>
         <ItemData ItemOID="CO.DOMAIN" Value="CO"/>
         <ItemData ItemOID="CO.RDOMAIN" Value="AE"/>
         <ItemData ItemOID="CO.USUBJID" Value="01-705-1199"/>
         <ItemData ItemOID="CO.COSEQ" Value="50"/>
         <ItemData ItemOID="CO.IDVAR" Value="AESEQ"/>
         <ItemData ItemOID="CO.IDVARVAL" Value="1"/>
         <ItemData ItemOID="CO.COREF" IsNull="Yes"/>
         <ItemData ItemOID="CO.COVAL" Value="related to record 1 in domain DS"/>
         <ItemData ItemOID="CO.COEVAL" Value="PRINCIPAL INVESTIGATOR"/>
      </ItemGroupData>
      <ItemGroupData data:ItemGroupDataSeq="51" ItemGroupOID="CO">
         <ItemData ItemOID="CO.STUDYID" Value="CDISCPILOT01"/>
         <ItemData ItemOID="CO.DOMAIN" Value="CO"/>
         <ItemData ItemOID="CO.RDOMAIN" Value="AE"/>
         <ItemData ItemOID="CO.USUBJID" Value="01-705-1199"/>
         <ItemData ItemOID="CO.COSEQ" Value="51"/>
         <ItemData ItemOID="CO.IDVAR" Value="AESEQ"/>
         <ItemData ItemOID="CO.IDVARVAL" Value="2"/>
         <ItemData ItemOID="CO.COREF" IsNull="Yes"/>
         <ItemData ItemOID="CO.COVAL" Value="related to record 1 in domain DS"/>
         <ItemData ItemOID="CO.COEVAL" Value="PRINCIPAL INVESTIGATOR"/>
      </ItemGroupData>
      <ItemGroupData data:ItemGroupDataSeq="52" ItemGroupOID="CO">
         <ItemData ItemOID="CO.STUDYID" Value="CDISCPILOT01"/>
         <ItemData ItemOID="CO.DOMAIN" Value="CO"/>
         <ItemData ItemOID="CO.RDOMAIN" Value="AE"/>
         <ItemData ItemOID="CO.USUBJID" Value="01-705-1281"/>
         <ItemData ItemOID="CO.COSEQ" Value="52"/>
         <ItemData ItemOID="CO.IDVAR" Value="AESEQ"/>
         <ItemData ItemOID="CO.IDVARVAL" Value="1"/>
         <ItemData ItemOID="CO.COREF" IsNull="Yes"/>
         <ItemData ItemOID="CO.COVAL" Value="related to record 1 in domain DS"/>
         <ItemData ItemOID="CO.COEVAL" Value="PRINCIPAL INVESTIGATOR"/>
      </ItemGroupData>
      <ItemGroupData data:ItemGroupDataSeq="53" ItemGroupOID="CO">
         <ItemData ItemOID="CO.STUDYID" Value="CDISCPILOT01"/>
         <ItemData ItemOID="CO.DOMAIN" Value="CO"/>
         <ItemData ItemOID="CO.RDOMAIN" Value="AE"/>
         <ItemData ItemOID="CO.USUBJID" Value="01-705-1281"/>
         <ItemData ItemOID="CO.COSEQ" Value="53"/>
         <ItemData ItemOID="CO.IDVAR" Value="AESEQ"/>
         <ItemData ItemOID="CO.IDVARVAL" Value="3"/>
         <ItemData ItemOID="CO.COREF" IsNull="Yes"/>
         <ItemData ItemOID="CO.COVAL" Value="related to record 1 in domain DS"/>
         <ItemData ItemOID="CO.COEVAL" Value="PRINCIPAL INVESTIGATOR"/>
      </ItemGroupData>
      <ItemGroupData data:ItemGroupDataSeq="54" ItemGroupOID="CO">
         <ItemData ItemOID="CO.STUDYID" Value="CDISCPILOT01"/>
         <ItemData ItemOID="CO.DOMAIN" Value="CO"/>
         <ItemData ItemOID="CO.RDOMAIN" Value="AE"/>
         <ItemData ItemOID="CO.USUBJID" Value="01-705-1303"/>
         <ItemData ItemOID="CO.COSEQ" Value="54"/>
         <ItemData ItemOID="CO.IDVAR" Value="AESEQ"/>
         <ItemData ItemOID="CO.IDVARVAL" Value="2"/>
         <ItemData ItemOID="CO.COREF" IsNull="Yes"/>
         <ItemData ItemOID="CO.COVAL" Value="related to record 1 in domain DS"/>
         <ItemData ItemOID="CO.COEVAL" Value="PRINCIPAL INVESTIGATOR"/>
      </ItemGroupData>
      <ItemGroupData data:ItemGroupDataSeq="55" ItemGroupOID="CO">
         <ItemData ItemOID="CO.STUDYID" Value="CDISCPILOT01"/>
         <ItemData ItemOID="CO.DOMAIN" Value="CO"/>
         <ItemData ItemOID="CO.RDOMAIN" Value="AE"/>
         <ItemData ItemOID="CO.USUBJID" Value="01-705-1303"/>
         <ItemData ItemOID="CO.COSEQ" Value="55"/>
         <ItemData ItemOID="CO.IDVAR" Value="AESEQ"/>
         <ItemData ItemOID="CO.IDVARVAL" Value="4"/>
         <ItemData ItemOID="CO.COREF" IsNull="Yes"/>
         <ItemData ItemOID="CO.COVAL" Value="related to record 1 in domain DS"/>
         <ItemData ItemOID="CO.COEVAL" Value="PRINCIPAL INVESTIGATOR"/>
      </ItemGroupData>
      <ItemGroupData data:ItemGroupDataSeq="56" ItemGroupOID="CO">
         <ItemData ItemOID="CO.STUDYID" Value="CDISCPILOT01"/>
         <ItemData ItemOID="CO.DOMAIN" Value="CO"/>
         <ItemData ItemOID="CO.RDOMAIN" Value="AE"/>
         <ItemData ItemOID="CO.USUBJID" Value="01-705-1310"/>
         <ItemData ItemOID="CO.COSEQ" Value="56"/>
         <ItemData ItemOID="CO.IDVAR" Value="AESEQ"/>
         <ItemData ItemOID="CO.IDVARVAL" Value="2"/>
         <ItemData ItemOID="CO.COREF" IsNull="Yes"/>
         <ItemData ItemOID="CO.COVAL" Value="related to record 1 in domain DS"/>
         <ItemData ItemOID="CO.COEVAL" Value="PRINCIPAL INVESTIGATOR"/>
      </ItemGroupData>
      <ItemGroupData data:ItemGroupDataSeq="57" ItemGroupOID="CO">
         <ItemData ItemOID="CO.STUDYID" Value="CDISCPILOT01"/>
         <ItemData ItemOID="CO.DOMAIN" Value="CO"/>
         <ItemData ItemOID="CO.RDOMAIN" Value="AE"/>
         <ItemData ItemOID="CO.USUBJID" Value="01-705-1393"/>
         <ItemData ItemOID="CO.COSEQ" Value="57"/>
         <ItemData ItemOID="CO.IDVAR" Value="AESEQ"/>
         <ItemData ItemOID="CO.IDVARVAL" Value="3"/>
         <ItemData ItemOID="CO.COREF" IsNull="Yes"/>
         <ItemData ItemOID="CO.COVAL" Value="related to record 1 in domain DS"/>
         <ItemData ItemOID="CO.COEVAL" Value="PRINCIPAL INVESTIGATOR"/>
      </ItemGroupData>
      <ItemGroupData data:ItemGroupDataSeq="58" ItemGroupOID="CO">
         <ItemData ItemOID="CO.STUDYID" Value="CDISCPILOT01"/>
         <ItemData ItemOID="CO.DOMAIN" Value="CO"/>
         <ItemData ItemOID="CO.RDOMAIN" Value="AE"/>
         <ItemData ItemOID="CO.USUBJID" Value="01-706-1049"/>
         <ItemData ItemOID="CO.COSEQ" Value="58"/>
         <ItemData ItemOID="CO.IDVAR" Value="AESEQ"/>
         <ItemData ItemOID="CO.IDVARVAL" Value="2"/>
         <ItemData ItemOID="CO.COREF" IsNull="Yes"/>
         <ItemData ItemOID="CO.COVAL" Value="related to record 1 in domain DS"/>
         <ItemData ItemOID="CO.COEVAL" Value="PRINCIPAL INVESTIGATOR"/>
      </ItemGroupData>
      <ItemGroupData data:ItemGroupDataSeq="59" ItemGroupOID="CO">
         <ItemData ItemOID="CO.STUDYID" Value="CDISCPILOT01"/>
         <ItemData ItemOID="CO.DOMAIN" Value="CO"/>
         <ItemData ItemOID="CO.RDOMAIN" Value="AE"/>
         <ItemData ItemOID="CO.USUBJID" Value="01-706-1384"/>
         <ItemData ItemOID="CO.COSEQ" Value="59"/>
         <ItemData ItemOID="CO.IDVAR" Value="AESEQ"/>
         <ItemData ItemOID="CO.IDVARVAL" Value="4"/>
         <ItemData ItemOID="CO.COREF" IsNull="Yes"/>
         <ItemData ItemOID="CO.COVAL" Value="related to record 1 in domain DS"/>
         <ItemData ItemOID="CO.COEVAL" Value="PRINCIPAL INVESTIGATOR"/>
      </ItemGroupData>
      <ItemGroupData data:ItemGroupDataSeq="60" ItemGroupOID="CO">
         <ItemData ItemOID="CO.STUDYID" Value="CDISCPILOT01"/>
         <ItemData ItemOID="CO.DOMAIN" Value="CO"/>
         <ItemData ItemOID="CO.RDOMAIN" Value="AE"/>
         <ItemData ItemOID="CO.USUBJID" Value="01-706-1384"/>
         <ItemData ItemOID="CO.COSEQ" Value="60"/>
         <ItemData ItemOID="CO.IDVAR" Value="AESEQ"/>
         <ItemData ItemOID="CO.IDVARVAL" Value="9"/>
         <ItemData ItemOID="CO.COREF" IsNull="Yes"/>
         <ItemData ItemOID="CO.COVAL" Value="related to record 1 in domain DS"/>
         <ItemData ItemOID="CO.COEVAL" Value="PRINCIPAL INVESTIGATOR"/>
      </ItemGroupData>
      <ItemGroupData data:ItemGroupDataSeq="61" ItemGroupOID="CO">
         <ItemData ItemOID="CO.STUDYID" Value="CDISCPILOT01"/>
         <ItemData ItemOID="CO.DOMAIN" Value="CO"/>
         <ItemData ItemOID="CO.RDOMAIN" Value="AE"/>
         <ItemData ItemOID="CO.USUBJID" Value="01-708-1019"/>
         <ItemData ItemOID="CO.COSEQ" Value="61"/>
         <ItemData ItemOID="CO.IDVAR" Value="AESEQ"/>
         <ItemData ItemOID="CO.IDVARVAL" Value="2"/>
         <ItemData ItemOID="CO.COREF" IsNull="Yes"/>
         <ItemData ItemOID="CO.COVAL" Value="related to record 1 in domain DS"/>
         <ItemData ItemOID="CO.COEVAL" Value="PRINCIPAL INVESTIGATOR"/>
      </ItemGroupData>
      <ItemGroupData data:ItemGroupDataSeq="62" ItemGroupOID="CO">
         <ItemData ItemOID="CO.STUDYID" Value="CDISCPILOT01"/>
         <ItemData ItemOID="CO.DOMAIN" Value="CO"/>
         <ItemData ItemOID="CO.RDOMAIN" Value="AE"/>
         <ItemData ItemOID="CO.USUBJID" Value="01-708-1032"/>
         <ItemData ItemOID="CO.COSEQ" Value="62"/>
         <ItemData ItemOID="CO.IDVAR" Value="AESEQ"/>
         <ItemData ItemOID="CO.IDVARVAL" Value="1"/>
         <ItemData ItemOID="CO.COREF" IsNull="Yes"/>
         <ItemData ItemOID="CO.COVAL" Value="related to record 1 in domain DS"/>
         <ItemData ItemOID="CO.COEVAL" Value="PRINCIPAL INVESTIGATOR"/>
      </ItemGroupData>
      <ItemGroupData data:ItemGroupDataSeq="63" ItemGroupOID="CO">
         <ItemData ItemOID="CO.STUDYID" Value="CDISCPILOT01"/>
         <ItemData ItemOID="CO.DOMAIN" Value="CO"/>
         <ItemData ItemOID="CO.RDOMAIN" Value="AE"/>
         <ItemData ItemOID="CO.USUBJID" Value="01-708-1158"/>
         <ItemData ItemOID="CO.COSEQ" Value="63"/>
         <ItemData ItemOID="CO.IDVAR" Value="AESEQ"/>
         <ItemData ItemOID="CO.IDVARVAL" Value="1"/>
         <ItemData ItemOID="CO.COREF" IsNull="Yes"/>
         <ItemData ItemOID="CO.COVAL" Value="related to record 1 in domain DS"/>
         <ItemData ItemOID="CO.COEVAL" Value="PRINCIPAL INVESTIGATOR"/>
      </ItemGroupData>
      <ItemGroupData data:ItemGroupDataSeq="64" ItemGroupOID="CO">
         <ItemData ItemOID="CO.STUDYID" Value="CDISCPILOT01"/>
         <ItemData ItemOID="CO.DOMAIN" Value="CO"/>
         <ItemData ItemOID="CO.RDOMAIN" Value="AE"/>
         <ItemData ItemOID="CO.USUBJID" Value="01-708-1213"/>
         <ItemData ItemOID="CO.COSEQ" Value="64"/>
         <ItemData ItemOID="CO.IDVAR" Value="AESEQ"/>
         <ItemData ItemOID="CO.IDVARVAL" Value="1"/>
         <ItemData ItemOID="CO.COREF" IsNull="Yes"/>
         <ItemData ItemOID="CO.COVAL" Value="related to record 1 in domain DS"/>
         <ItemData ItemOID="CO.COEVAL" Value="PRINCIPAL INVESTIGATOR"/>
      </ItemGroupData>
      <ItemGroupData data:ItemGroupDataSeq="65" ItemGroupOID="CO">
         <ItemData ItemOID="CO.STUDYID" Value="CDISCPILOT01"/>
         <ItemData ItemOID="CO.DOMAIN" Value="CO"/>
         <ItemData ItemOID="CO.RDOMAIN" Value="AE"/>
         <ItemData ItemOID="CO.USUBJID" Value="01-708-1213"/>
         <ItemData ItemOID="CO.COSEQ" Value="65"/>
         <ItemData ItemOID="CO.IDVAR" Value="AESEQ"/>
         <ItemData ItemOID="CO.IDVARVAL" Value="2"/>
         <ItemData ItemOID="CO.COREF" IsNull="Yes"/>
         <ItemData ItemOID="CO.COVAL" Value="related to record 1 in domain DS"/>
         <ItemData ItemOID="CO.COEVAL" Value="PRINCIPAL INVESTIGATOR"/>
      </ItemGroupData>
      <ItemGroupData data:ItemGroupDataSeq="66" ItemGroupOID="CO">
         <ItemData ItemOID="CO.STUDYID" Value="CDISCPILOT01"/>
         <ItemData ItemOID="CO.DOMAIN" Value="CO"/>
         <ItemData ItemOID="CO.RDOMAIN" Value="AE"/>
         <ItemData ItemOID="CO.USUBJID" Value="01-708-1216"/>
         <ItemData ItemOID="CO.COSEQ" Value="66"/>
         <ItemData ItemOID="CO.IDVAR" Value="AESEQ"/>
         <ItemData ItemOID="CO.IDVARVAL" Value="1"/>
         <ItemData ItemOID="CO.COREF" IsNull="Yes"/>
         <ItemData ItemOID="CO.COVAL" Value="related to record 1 in domain DS"/>
         <ItemData ItemOID="CO.COEVAL" Value="PRINCIPAL INVESTIGATOR"/>
      </ItemGroupData>
      <ItemGroupData data:ItemGroupDataSeq="67" ItemGroupOID="CO">
         <ItemData ItemOID="CO.STUDYID" Value="CDISCPILOT01"/>
         <ItemData ItemOID="CO.DOMAIN" Value="CO"/>
         <ItemData ItemOID="CO.RDOMAIN" Value="AE"/>
         <ItemData ItemOID="CO.USUBJID" Value="01-708-1297"/>
         <ItemData ItemOID="CO.COSEQ" Value="67"/>
         <ItemData ItemOID="CO.IDVAR" Value="AESEQ"/>
         <ItemData ItemOID="CO.IDVARVAL" Value="1"/>
         <ItemData ItemOID="CO.COREF" IsNull="Yes"/>
         <ItemData ItemOID="CO.COVAL" Value="related to record 1 in domain DS"/>
         <ItemData ItemOID="CO.COEVAL" Value="PRINCIPAL INVESTIGATOR"/>
      </ItemGroupData>
      <ItemGroupData data:ItemGroupDataSeq="68" ItemGroupOID="CO">
         <ItemData ItemOID="CO.STUDYID" Value="CDISCPILOT01"/>
         <ItemData ItemOID="CO.DOMAIN" Value="CO"/>
         <ItemData ItemOID="CO.RDOMAIN" Value="AE"/>
         <ItemData ItemOID="CO.USUBJID" Value="01-708-1347"/>
         <ItemData ItemOID="CO.COSEQ" Value="68"/>
         <ItemData ItemOID="CO.IDVAR" Value="AESEQ"/>
         <ItemData ItemOID="CO.IDVARVAL" Value="2"/>
         <ItemData ItemOID="CO.COREF" IsNull="Yes"/>
         <ItemData ItemOID="CO.COVAL" Value="related to record 1 in domain DS"/>
         <ItemData ItemOID="CO.COEVAL" Value="PRINCIPAL INVESTIGATOR"/>
      </ItemGroupData>
      <ItemGroupData data:ItemGroupDataSeq="69" ItemGroupOID="CO">
         <ItemData ItemOID="CO.STUDYID" Value="CDISCPILOT01"/>
         <ItemData ItemOID="CO.DOMAIN" Value="CO"/>
         <ItemData ItemOID="CO.RDOMAIN" Value="AE"/>
         <ItemData ItemOID="CO.USUBJID" Value="01-708-1347"/>
         <ItemData ItemOID="CO.COSEQ" Value="69"/>
         <ItemData ItemOID="CO.IDVAR" Value="AESEQ"/>
         <ItemData ItemOID="CO.IDVARVAL" Value="6"/>
         <ItemData ItemOID="CO.COREF" IsNull="Yes"/>
         <ItemData ItemOID="CO.COVAL" Value="related to record 1 in domain DS"/>
         <ItemData ItemOID="CO.COEVAL" Value="PRINCIPAL INVESTIGATOR"/>
      </ItemGroupData>
      <ItemGroupData data:ItemGroupDataSeq="70" ItemGroupOID="CO">
         <ItemData ItemOID="CO.STUDYID" Value="CDISCPILOT01"/>
         <ItemData ItemOID="CO.DOMAIN" Value="CO"/>
         <ItemData ItemOID="CO.RDOMAIN" Value="AE"/>
         <ItemData ItemOID="CO.USUBJID" Value="01-708-1353"/>
         <ItemData ItemOID="CO.COSEQ" Value="70"/>
         <ItemData ItemOID="CO.IDVAR" Value="AESEQ"/>
         <ItemData ItemOID="CO.IDVARVAL" Value="3"/>
         <ItemData ItemOID="CO.COREF" IsNull="Yes"/>
         <ItemData ItemOID="CO.COVAL" Value="related to record 1 in domain DS"/>
         <ItemData ItemOID="CO.COEVAL" Value="PRINCIPAL INVESTIGATOR"/>
      </ItemGroupData>
      <ItemGroupData data:ItemGroupDataSeq="71" ItemGroupOID="CO">
         <ItemData ItemOID="CO.STUDYID" Value="CDISCPILOT01"/>
         <ItemData ItemOID="CO.DOMAIN" Value="CO"/>
         <ItemData ItemOID="CO.RDOMAIN" Value="AE"/>
         <ItemData ItemOID="CO.USUBJID" Value="01-708-1428"/>
         <ItemData ItemOID="CO.COSEQ" Value="71"/>
         <ItemData ItemOID="CO.IDVAR" Value="AESEQ"/>
         <ItemData ItemOID="CO.IDVARVAL" Value="2"/>
         <ItemData ItemOID="CO.COREF" IsNull="Yes"/>
         <ItemData ItemOID="CO.COVAL" Value="related to record 1 in domain DS"/>
         <ItemData ItemOID="CO.COEVAL" Value="PRINCIPAL INVESTIGATOR"/>
      </ItemGroupData>
      <ItemGroupData data:ItemGroupDataSeq="72" ItemGroupOID="CO">
         <ItemData ItemOID="CO.STUDYID" Value="CDISCPILOT01"/>
         <ItemData ItemOID="CO.DOMAIN" Value="CO"/>
         <ItemData ItemOID="CO.RDOMAIN" Value="AE"/>
         <ItemData ItemOID="CO.USUBJID" Value="01-708-1428"/>
         <ItemData ItemOID="CO.COSEQ" Value="72"/>
         <ItemData ItemOID="CO.IDVAR" Value="AESEQ"/>
         <ItemData ItemOID="CO.IDVARVAL" Value="5"/>
         <ItemData ItemOID="CO.COREF" IsNull="Yes"/>
         <ItemData ItemOID="CO.COVAL" Value="related to record 1 in domain DS"/>
         <ItemData ItemOID="CO.COEVAL" Value="PRINCIPAL INVESTIGATOR"/>
      </ItemGroupData>
      <ItemGroupData data:ItemGroupDataSeq="73" ItemGroupOID="CO">
         <ItemData ItemOID="CO.STUDYID" Value="CDISCPILOT01"/>
         <ItemData ItemOID="CO.DOMAIN" Value="CO"/>
         <ItemData ItemOID="CO.RDOMAIN" Value="AE"/>
         <ItemData ItemOID="CO.USUBJID" Value="01-709-1007"/>
         <ItemData ItemOID="CO.COSEQ" Value="73"/>
         <ItemData ItemOID="CO.IDVAR" Value="AESEQ"/>
         <ItemData ItemOID="CO.IDVARVAL" Value="3"/>
         <ItemData ItemOID="CO.COREF" IsNull="Yes"/>
         <ItemData ItemOID="CO.COVAL" Value="related to record 1 in domain DS"/>
         <ItemData ItemOID="CO.COEVAL" Value="PRINCIPAL INVESTIGATOR"/>
      </ItemGroupData>
      <ItemGroupData data:ItemGroupDataSeq="74" ItemGroupOID="CO">
         <ItemData ItemOID="CO.STUDYID" Value="CDISCPILOT01"/>
         <ItemData ItemOID="CO.DOMAIN" Value="CO"/>
         <ItemData ItemOID="CO.RDOMAIN" Value="AE"/>
         <ItemData ItemOID="CO.USUBJID" Value="01-709-1081"/>
         <ItemData ItemOID="CO.COSEQ" Value="74"/>
         <ItemData ItemOID="CO.IDVAR" Value="AESEQ"/>
         <ItemData ItemOID="CO.IDVARVAL" Value="1"/>
         <ItemData ItemOID="CO.COREF" IsNull="Yes"/>
         <ItemData ItemOID="CO.COVAL" Value="related to record 1 in domain DS"/>
         <ItemData ItemOID="CO.COEVAL" Value="PRINCIPAL INVESTIGATOR"/>
      </ItemGroupData>
      <ItemGroupData data:ItemGroupDataSeq="75" ItemGroupOID="CO">
         <ItemData ItemOID="CO.STUDYID" Value="CDISCPILOT01"/>
         <ItemData ItemOID="CO.DOMAIN" Value="CO"/>
         <ItemData ItemOID="CO.RDOMAIN" Value="AE"/>
         <ItemData ItemOID="CO.USUBJID" Value="01-709-1102"/>
         <ItemData ItemOID="CO.COSEQ" Value="75"/>
         <ItemData ItemOID="CO.IDVAR" Value="AESEQ"/>
         <ItemData ItemOID="CO.IDVARVAL" Value="1"/>
         <ItemData ItemOID="CO.COREF" IsNull="Yes"/>
         <ItemData ItemOID="CO.COVAL" Value="related to record 1 in domain DS"/>
         <ItemData ItemOID="CO.COEVAL" Value="PRINCIPAL INVESTIGATOR"/>
      </ItemGroupData>
      <ItemGroupData data:ItemGroupDataSeq="76" ItemGroupOID="CO">
         <ItemData ItemOID="CO.STUDYID" Value="CDISCPILOT01"/>
         <ItemData ItemOID="CO.DOMAIN" Value="CO"/>
         <ItemData ItemOID="CO.RDOMAIN" Value="AE"/>
         <ItemData ItemOID="CO.USUBJID" Value="01-709-1102"/>
         <ItemData ItemOID="CO.COSEQ" Value="76"/>
         <ItemData ItemOID="CO.IDVAR" Value="AESEQ"/>
         <ItemData ItemOID="CO.IDVARVAL" Value="3"/>
         <ItemData ItemOID="CO.COREF" IsNull="Yes"/>
         <ItemData ItemOID="CO.COVAL" Value="related to record 1 in domain DS"/>
         <ItemData ItemOID="CO.COEVAL" Value="PRINCIPAL INVESTIGATOR"/>
      </ItemGroupData>
      <ItemGroupData data:ItemGroupDataSeq="77" ItemGroupOID="CO">
         <ItemData ItemOID="CO.STUDYID" Value="CDISCPILOT01"/>
         <ItemData ItemOID="CO.DOMAIN" Value="CO"/>
         <ItemData ItemOID="CO.RDOMAIN" Value="AE"/>
         <ItemData ItemOID="CO.USUBJID" Value="01-709-1168"/>
         <ItemData ItemOID="CO.COSEQ" Value="77"/>
         <ItemData ItemOID="CO.IDVAR" Value="AESEQ"/>
         <ItemData ItemOID="CO.IDVARVAL" Value="3"/>
         <ItemData ItemOID="CO.COREF" IsNull="Yes"/>
         <ItemData ItemOID="CO.COVAL" Value="related to record 1 in domain DS"/>
         <ItemData ItemOID="CO.COEVAL" Value="PRINCIPAL INVESTIGATOR"/>
      </ItemGroupData>
      <ItemGroupData data:ItemGroupDataSeq="78" ItemGroupOID="CO">
         <ItemData ItemOID="CO.STUDYID" Value="CDISCPILOT01"/>
         <ItemData ItemOID="CO.DOMAIN" Value="CO"/>
         <ItemData ItemOID="CO.RDOMAIN" Value="AE"/>
         <ItemData ItemOID="CO.USUBJID" Value="01-709-1168"/>
         <ItemData ItemOID="CO.COSEQ" Value="78"/>
         <ItemData ItemOID="CO.IDVAR" Value="AESEQ"/>
         <ItemData ItemOID="CO.IDVARVAL" Value="5"/>
         <ItemData ItemOID="CO.COREF" IsNull="Yes"/>
         <ItemData ItemOID="CO.COVAL" Value="related to record 1 in domain DS"/>
         <ItemData ItemOID="CO.COEVAL" Value="PRINCIPAL INVESTIGATOR"/>
      </ItemGroupData>
      <ItemGroupData data:ItemGroupDataSeq="79" ItemGroupOID="CO">
         <ItemData ItemOID="CO.STUDYID" Value="CDISCPILOT01"/>
         <ItemData ItemOID="CO.DOMAIN" Value="CO"/>
         <ItemData ItemOID="CO.RDOMAIN" Value="AE"/>
         <ItemData ItemOID="CO.USUBJID" Value="01-709-1217"/>
         <ItemData ItemOID="CO.COSEQ" Value="79"/>
         <ItemData ItemOID="CO.IDVAR" Value="AESEQ"/>
         <ItemData ItemOID="CO.IDVARVAL" Value="11"/>
         <ItemData ItemOID="CO.COREF" IsNull="Yes"/>
         <ItemData ItemOID="CO.COVAL" Value="related to record 1 in domain DS"/>
         <ItemData ItemOID="CO.COEVAL" Value="PRINCIPAL INVESTIGATOR"/>
      </ItemGroupData>
      <ItemGroupData data:ItemGroupDataSeq="80" ItemGroupOID="CO">
         <ItemData ItemOID="CO.STUDYID" Value="CDISCPILOT01"/>
         <ItemData ItemOID="CO.DOMAIN" Value="CO"/>
         <ItemData ItemOID="CO.RDOMAIN" Value="AE"/>
         <ItemData ItemOID="CO.USUBJID" Value="01-709-1238"/>
         <ItemData ItemOID="CO.COSEQ" Value="80"/>
         <ItemData ItemOID="CO.IDVAR" Value="AESEQ"/>
         <ItemData ItemOID="CO.IDVARVAL" Value="2"/>
         <ItemData ItemOID="CO.COREF" IsNull="Yes"/>
         <ItemData ItemOID="CO.COVAL" Value="related to record 1 in domain DS"/>
         <ItemData ItemOID="CO.COEVAL" Value="PRINCIPAL INVESTIGATOR"/>
      </ItemGroupData>
      <ItemGroupData data:ItemGroupDataSeq="81" ItemGroupOID="CO">
         <ItemData ItemOID="CO.STUDYID" Value="CDISCPILOT01"/>
         <ItemData ItemOID="CO.DOMAIN" Value="CO"/>
         <ItemData ItemOID="CO.RDOMAIN" Value="AE"/>
         <ItemData ItemOID="CO.USUBJID" Value="01-709-1306"/>
         <ItemData ItemOID="CO.COSEQ" Value="81"/>
         <ItemData ItemOID="CO.IDVAR" Value="AESEQ"/>
         <ItemData ItemOID="CO.IDVARVAL" Value="5"/>
         <ItemData ItemOID="CO.COREF" IsNull="Yes"/>
         <ItemData ItemOID="CO.COVAL" Value="related to record 1 in domain DS"/>
         <ItemData ItemOID="CO.COEVAL" Value="PRINCIPAL INVESTIGATOR"/>
      </ItemGroupData>
      <ItemGroupData data:ItemGroupDataSeq="82" ItemGroupOID="CO">
         <ItemData ItemOID="CO.STUDYID" Value="CDISCPILOT01"/>
         <ItemData ItemOID="CO.DOMAIN" Value="CO"/>
         <ItemData ItemOID="CO.RDOMAIN" Value="AE"/>
         <ItemData ItemOID="CO.USUBJID" Value="01-709-1306"/>
         <ItemData ItemOID="CO.COSEQ" Value="82"/>
         <ItemData ItemOID="CO.IDVAR" Value="AESEQ"/>
         <ItemData ItemOID="CO.IDVARVAL" Value="9"/>
         <ItemData ItemOID="CO.COREF" IsNull="Yes"/>
         <ItemData ItemOID="CO.COVAL" Value="related to record 1 in domain DS"/>
         <ItemData ItemOID="CO.COEVAL" Value="PRINCIPAL INVESTIGATOR"/>
      </ItemGroupData>
      <ItemGroupData data:ItemGroupDataSeq="83" ItemGroupOID="CO">
         <ItemData ItemOID="CO.STUDYID" Value="CDISCPILOT01"/>
         <ItemData ItemOID="CO.DOMAIN" Value="CO"/>
         <ItemData ItemOID="CO.RDOMAIN" Value="AE"/>
         <ItemData ItemOID="CO.USUBJID" Value="01-709-1424"/>
         <ItemData ItemOID="CO.COSEQ" Value="83"/>
         <ItemData ItemOID="CO.IDVAR" Value="AESEQ"/>
         <ItemData ItemOID="CO.IDVARVAL" Value="1"/>
         <ItemData ItemOID="CO.COREF" IsNull="Yes"/>
         <ItemData ItemOID="CO.COVAL" Value="related to record 1 in domain DS"/>
         <ItemData ItemOID="CO.COEVAL" Value="PRINCIPAL INVESTIGATOR"/>
      </ItemGroupData>
      <ItemGroupData data:ItemGroupDataSeq="84" ItemGroupOID="CO">
         <ItemData ItemOID="CO.STUDYID" Value="CDISCPILOT01"/>
         <ItemData ItemOID="CO.DOMAIN" Value="CO"/>
         <ItemData ItemOID="CO.RDOMAIN" Value="AE"/>
         <ItemData ItemOID="CO.USUBJID" Value="01-710-1002"/>
         <ItemData ItemOID="CO.COSEQ" Value="84"/>
         <ItemData ItemOID="CO.IDVAR" Value="AESEQ"/>
         <ItemData ItemOID="CO.IDVARVAL" Value="1"/>
         <ItemData ItemOID="CO.COREF" IsNull="Yes"/>
         <ItemData ItemOID="CO.COVAL" Value="related to record 1 in domain DS"/>
         <ItemData ItemOID="CO.COEVAL" Value="PRINCIPAL INVESTIGATOR"/>
      </ItemGroupData>
      <ItemGroupData data:ItemGroupDataSeq="85" ItemGroupOID="CO">
         <ItemData ItemOID="CO.STUDYID" Value="CDISCPILOT01"/>
         <ItemData ItemOID="CO.DOMAIN" Value="CO"/>
         <ItemData ItemOID="CO.RDOMAIN" Value="AE"/>
         <ItemData ItemOID="CO.USUBJID" Value="01-710-1002"/>
         <ItemData ItemOID="CO.COSEQ" Value="85"/>
         <ItemData ItemOID="CO.IDVAR" Value="AESEQ"/>
         <ItemData ItemOID="CO.IDVARVAL" Value="2"/>
         <ItemData ItemOID="CO.COREF" IsNull="Yes"/>
         <ItemData ItemOID="CO.COVAL" Value="related to record 1 in domain DS"/>
         <ItemData ItemOID="CO.COEVAL" Value="PRINCIPAL INVESTIGATOR"/>
      </ItemGroupData>
      <ItemGroupData data:ItemGroupDataSeq="86" ItemGroupOID="CO">
         <ItemData ItemOID="CO.STUDYID" Value="CDISCPILOT01"/>
         <ItemData ItemOID="CO.DOMAIN" Value="CO"/>
         <ItemData ItemOID="CO.RDOMAIN" Value="AE"/>
         <ItemData ItemOID="CO.USUBJID" Value="01-710-1021"/>
         <ItemData ItemOID="CO.COSEQ" Value="86"/>
         <ItemData ItemOID="CO.IDVAR" Value="AESEQ"/>
         <ItemData ItemOID="CO.IDVARVAL" Value="2"/>
         <ItemData ItemOID="CO.COREF" IsNull="Yes"/>
         <ItemData ItemOID="CO.COVAL" Value="related to record 1 in domain DS"/>
         <ItemData ItemOID="CO.COEVAL" Value="PRINCIPAL INVESTIGATOR"/>
      </ItemGroupData>
      <ItemGroupData data:ItemGroupDataSeq="87" ItemGroupOID="CO">
         <ItemData ItemOID="CO.STUDYID" Value="CDISCPILOT01"/>
         <ItemData ItemOID="CO.DOMAIN" Value="CO"/>
         <ItemData ItemOID="CO.RDOMAIN" Value="AE"/>
         <ItemData ItemOID="CO.USUBJID" Value="01-710-1021"/>
         <ItemData ItemOID="CO.COSEQ" Value="87"/>
         <ItemData ItemOID="CO.IDVAR" Value="AESEQ"/>
         <ItemData ItemOID="CO.IDVARVAL" Value="3"/>
         <ItemData ItemOID="CO.COREF" IsNull="Yes"/>
         <ItemData ItemOID="CO.COVAL" Value="related to record 1 in domain DS"/>
         <ItemData ItemOID="CO.COEVAL" Value="PRINCIPAL INVESTIGATOR"/>
      </ItemGroupData>
      <ItemGroupData data:ItemGroupDataSeq="88" ItemGroupOID="CO">
         <ItemData ItemOID="CO.STUDYID" Value="CDISCPILOT01"/>
         <ItemData ItemOID="CO.DOMAIN" Value="CO"/>
         <ItemData ItemOID="CO.RDOMAIN" Value="AE"/>
         <ItemData ItemOID="CO.USUBJID" Value="01-710-1045"/>
         <ItemData ItemOID="CO.COSEQ" Value="88"/>
         <ItemData ItemOID="CO.IDVAR" Value="AESEQ"/>
         <ItemData ItemOID="CO.IDVARVAL" Value="3"/>
         <ItemData ItemOID="CO.COREF" IsNull="Yes"/>
         <ItemData ItemOID="CO.COVAL" Value="related to record 1 in domain DS"/>
         <ItemData ItemOID="CO.COEVAL" Value="PRINCIPAL INVESTIGATOR"/>
      </ItemGroupData>
      <ItemGroupData data:ItemGroupDataSeq="89" ItemGroupOID="CO">
         <ItemData ItemOID="CO.STUDYID" Value="CDISCPILOT01"/>
         <ItemData ItemOID="CO.DOMAIN" Value="CO"/>
         <ItemData ItemOID="CO.RDOMAIN" Value="AE"/>
         <ItemData ItemOID="CO.USUBJID" Value="01-710-1045"/>
         <ItemData ItemOID="CO.COSEQ" Value="89"/>
         <ItemData ItemOID="CO.IDVAR" Value="AESEQ"/>
         <ItemData ItemOID="CO.IDVARVAL" Value="9"/>
         <ItemData ItemOID="CO.COREF" IsNull="Yes"/>
         <ItemData ItemOID="CO.COVAL" Value="related to record 1 in domain DS"/>
         <ItemData ItemOID="CO.COEVAL" Value="PRINCIPAL INVESTIGATOR"/>
      </ItemGroupData>
      <ItemGroupData data:ItemGroupDataSeq="90" ItemGroupOID="CO">
         <ItemData ItemOID="CO.STUDYID" Value="CDISCPILOT01"/>
         <ItemData ItemOID="CO.DOMAIN" Value="CO"/>
         <ItemData ItemOID="CO.RDOMAIN" Value="AE"/>
         <ItemData ItemOID="CO.USUBJID" Value="01-710-1053"/>
         <ItemData ItemOID="CO.COSEQ" Value="90"/>
         <ItemData ItemOID="CO.IDVAR" Value="AESEQ"/>
         <ItemData ItemOID="CO.IDVARVAL" Value="2"/>
         <ItemData ItemOID="CO.COREF" IsNull="Yes"/>
         <ItemData ItemOID="CO.COVAL" Value="related to record 1 in domain DS"/>
         <ItemData ItemOID="CO.COEVAL" Value="PRINCIPAL INVESTIGATOR"/>
      </ItemGroupData>
      <ItemGroupData data:ItemGroupDataSeq="91" ItemGroupOID="CO">
         <ItemData ItemOID="CO.STUDYID" Value="CDISCPILOT01"/>
         <ItemData ItemOID="CO.DOMAIN" Value="CO"/>
         <ItemData ItemOID="CO.RDOMAIN" Value="AE"/>
         <ItemData ItemOID="CO.USUBJID" Value="01-710-1053"/>
         <ItemData ItemOID="CO.COSEQ" Value="91"/>
         <ItemData ItemOID="CO.IDVAR" Value="AESEQ"/>
         <ItemData ItemOID="CO.IDVARVAL" Value="4"/>
         <ItemData ItemOID="CO.COREF" IsNull="Yes"/>
         <ItemData ItemOID="CO.COVAL" Value="related to record 1 in domain DS"/>
         <ItemData ItemOID="CO.COEVAL" Value="PRINCIPAL INVESTIGATOR"/>
      </ItemGroupData>
      <ItemGroupData data:ItemGroupDataSeq="92" ItemGroupOID="CO">
         <ItemData ItemOID="CO.STUDYID" Value="CDISCPILOT01"/>
         <ItemData ItemOID="CO.DOMAIN" Value="CO"/>
         <ItemData ItemOID="CO.RDOMAIN" Value="AE"/>
         <ItemData ItemOID="CO.USUBJID" Value="01-710-1070"/>
         <ItemData ItemOID="CO.COSEQ" Value="92"/>
         <ItemData ItemOID="CO.IDVAR" Value="AESEQ"/>
         <ItemData ItemOID="CO.IDVARVAL" Value="5"/>
         <ItemData ItemOID="CO.COREF" IsNull="Yes"/>
         <ItemData ItemOID="CO.COVAL" Value="related to record 1 in domain DS"/>
         <ItemData ItemOID="CO.COEVAL" Value="PRINCIPAL INVESTIGATOR"/>
      </ItemGroupData>
      <ItemGroupData data:ItemGroupDataSeq="93" ItemGroupOID="CO">
         <ItemData ItemOID="CO.STUDYID" Value="CDISCPILOT01"/>
         <ItemData ItemOID="CO.DOMAIN" Value="CO"/>
         <ItemData ItemOID="CO.RDOMAIN" Value="AE"/>
         <ItemData ItemOID="CO.USUBJID" Value="01-710-1083"/>
         <ItemData ItemOID="CO.COSEQ" Value="93"/>
         <ItemData ItemOID="CO.IDVAR" Value="AESEQ"/>
         <ItemData ItemOID="CO.IDVARVAL" Value="1"/>
         <ItemData ItemOID="CO.COREF" IsNull="Yes"/>
         <ItemData ItemOID="CO.COVAL" Value="related to record 1 in domain DS"/>
         <ItemData ItemOID="CO.COEVAL" Value="PRINCIPAL INVESTIGATOR"/>
      </ItemGroupData>
      <ItemGroupData data:ItemGroupDataSeq="94" ItemGroupOID="CO">
         <ItemData ItemOID="CO.STUDYID" Value="CDISCPILOT01"/>
         <ItemData ItemOID="CO.DOMAIN" Value="CO"/>
         <ItemData ItemOID="CO.RDOMAIN" Value="AE"/>
         <ItemData ItemOID="CO.USUBJID" Value="01-710-1137"/>
         <ItemData ItemOID="CO.COSEQ" Value="94"/>
         <ItemData ItemOID="CO.IDVAR" Value="AESEQ"/>
         <ItemData ItemOID="CO.IDVARVAL" Value="3"/>
         <ItemData ItemOID="CO.COREF" IsNull="Yes"/>
         <ItemData ItemOID="CO.COVAL" Value="related to record 1 in domain DS"/>
         <ItemData ItemOID="CO.COEVAL" Value="PRINCIPAL INVESTIGATOR"/>
      </ItemGroupData>
      <ItemGroupData data:ItemGroupDataSeq="95" ItemGroupOID="CO">
         <ItemData ItemOID="CO.STUDYID" Value="CDISCPILOT01"/>
         <ItemData ItemOID="CO.DOMAIN" Value="CO"/>
         <ItemData ItemOID="CO.RDOMAIN" Value="AE"/>
         <ItemData ItemOID="CO.USUBJID" Value="01-710-1142"/>
         <ItemData ItemOID="CO.COSEQ" Value="95"/>
         <ItemData ItemOID="CO.IDVAR" Value="AESEQ"/>
         <ItemData ItemOID="CO.IDVARVAL" Value="4"/>
         <ItemData ItemOID="CO.COREF" IsNull="Yes"/>
         <ItemData ItemOID="CO.COVAL" Value="related to record 1 in domain DS"/>
         <ItemData ItemOID="CO.COEVAL" Value="PRINCIPAL INVESTIGATOR"/>
      </ItemGroupData>
      <ItemGroupData data:ItemGroupDataSeq="96" ItemGroupOID="CO">
         <ItemData ItemOID="CO.STUDYID" Value="CDISCPILOT01"/>
         <ItemData ItemOID="CO.DOMAIN" Value="CO"/>
         <ItemData ItemOID="CO.RDOMAIN" Value="AE"/>
         <ItemData ItemOID="CO.USUBJID" Value="01-710-1154"/>
         <ItemData ItemOID="CO.COSEQ" Value="96"/>
         <ItemData ItemOID="CO.IDVAR" Value="AESEQ"/>
         <ItemData ItemOID="CO.IDVARVAL" Value="1"/>
         <ItemData ItemOID="CO.COREF" IsNull="Yes"/>
         <ItemData ItemOID="CO.COVAL" Value="related to record 1 in domain DS"/>
         <ItemData ItemOID="CO.COEVAL" Value="PRINCIPAL INVESTIGATOR"/>
      </ItemGroupData>
      <ItemGroupData data:ItemGroupDataSeq="97" ItemGroupOID="CO">
         <ItemData ItemOID="CO.STUDYID" Value="CDISCPILOT01"/>
         <ItemData ItemOID="CO.DOMAIN" Value="CO"/>
         <ItemData ItemOID="CO.RDOMAIN" Value="AE"/>
         <ItemData ItemOID="CO.USUBJID" Value="01-710-1154"/>
         <ItemData ItemOID="CO.COSEQ" Value="97"/>
         <ItemData ItemOID="CO.IDVAR" Value="AESEQ"/>
         <ItemData ItemOID="CO.IDVARVAL" Value="2"/>
         <ItemData ItemOID="CO.COREF" IsNull="Yes"/>
         <ItemData ItemOID="CO.COVAL" Value="related to record 1 in domain DS"/>
         <ItemData ItemOID="CO.COEVAL" Value="PRINCIPAL INVESTIGATOR"/>
      </ItemGroupData>
      <ItemGroupData data:ItemGroupDataSeq="98" ItemGroupOID="CO">
         <ItemData ItemOID="CO.STUDYID" Value="CDISCPILOT01"/>
         <ItemData ItemOID="CO.DOMAIN" Value="CO"/>
         <ItemData ItemOID="CO.RDOMAIN" Value="AE"/>
         <ItemData ItemOID="CO.USUBJID" Value="01-710-1166"/>
         <ItemData ItemOID="CO.COSEQ" Value="98"/>
         <ItemData ItemOID="CO.IDVAR" Value="AESEQ"/>
         <ItemData ItemOID="CO.IDVARVAL" Value="5"/>
         <ItemData ItemOID="CO.COREF" IsNull="Yes"/>
         <ItemData ItemOID="CO.COVAL" Value="related to record 1 in domain DS"/>
         <ItemData ItemOID="CO.COEVAL" Value="PRINCIPAL INVESTIGATOR"/>
      </ItemGroupData>
      <ItemGroupData data:ItemGroupDataSeq="99" ItemGroupOID="CO">
         <ItemData ItemOID="CO.STUDYID" Value="CDISCPILOT01"/>
         <ItemData ItemOID="CO.DOMAIN" Value="CO"/>
         <ItemData ItemOID="CO.RDOMAIN" Value="AE"/>
         <ItemData ItemOID="CO.USUBJID" Value="01-710-1264"/>
         <ItemData ItemOID="CO.COSEQ" Value="99"/>
         <ItemData ItemOID="CO.IDVAR" Value="AESEQ"/>
         <ItemData ItemOID="CO.IDVARVAL" Value="4"/>
         <ItemData ItemOID="CO.COREF" IsNull="Yes"/>
         <ItemData ItemOID="CO.COVAL" Value="related to record 1 in domain DS"/>
         <ItemData ItemOID="CO.COEVAL" Value="PRINCIPAL INVESTIGATOR"/>
      </ItemGroupData>
      <ItemGroupData data:ItemGroupDataSeq="100" ItemGroupOID="CO">
         <ItemData ItemOID="CO.STUDYID" Value="CDISCPILOT01"/>
         <ItemData ItemOID="CO.DOMAIN" Value="CO"/>
         <ItemData ItemOID="CO.RDOMAIN" Value="AE"/>
         <ItemData ItemOID="CO.USUBJID" Value="01-710-1270"/>
         <ItemData ItemOID="CO.COSEQ" Value="100"/>
         <ItemData ItemOID="CO.IDVAR" Value="AESEQ"/>
         <ItemData ItemOID="CO.IDVARVAL" Value="2"/>
         <ItemData ItemOID="CO.COREF" IsNull="Yes"/>
         <ItemData ItemOID="CO.COVAL" Value="related to record 1 in domain DS"/>
         <ItemData ItemOID="CO.COEVAL" Value="PRINCIPAL INVESTIGATOR"/>
      </ItemGroupData>
      <ItemGroupData data:ItemGroupDataSeq="101" ItemGroupOID="CO">
         <ItemData ItemOID="CO.STUDYID" Value="CDISCPILOT01"/>
         <ItemData ItemOID="CO.DOMAIN" Value="CO"/>
         <ItemData ItemOID="CO.RDOMAIN" Value="AE"/>
         <ItemData ItemOID="CO.USUBJID" Value="01-710-1271"/>
         <ItemData ItemOID="CO.COSEQ" Value="101"/>
         <ItemData ItemOID="CO.IDVAR" Value="AESEQ"/>
         <ItemData ItemOID="CO.IDVARVAL" Value="2"/>
         <ItemData ItemOID="CO.COREF" IsNull="Yes"/>
         <ItemData ItemOID="CO.COVAL" Value="related to record 1 in domain DS"/>
         <ItemData ItemOID="CO.COEVAL" Value="PRINCIPAL INVESTIGATOR"/>
      </ItemGroupData>
      <ItemGroupData data:ItemGroupDataSeq="102" ItemGroupOID="CO">
         <ItemData ItemOID="CO.STUDYID" Value="CDISCPILOT01"/>
         <ItemData ItemOID="CO.DOMAIN" Value="CO"/>
         <ItemData ItemOID="CO.RDOMAIN" Value="AE"/>
         <ItemData ItemOID="CO.USUBJID" Value="01-710-1278"/>
         <ItemData ItemOID="CO.COSEQ" Value="102"/>
         <ItemData ItemOID="CO.IDVAR" Value="AESEQ"/>
         <ItemData ItemOID="CO.IDVARVAL" Value="2"/>
         <ItemData ItemOID="CO.COREF" IsNull="Yes"/>
         <ItemData ItemOID="CO.COVAL" Value="related to record 1 in domain DS"/>
         <ItemData ItemOID="CO.COEVAL" Value="PRINCIPAL INVESTIGATOR"/>
      </ItemGroupData>
      <ItemGroupData data:ItemGroupDataSeq="103" ItemGroupOID="CO">
         <ItemData ItemOID="CO.STUDYID" Value="CDISCPILOT01"/>
         <ItemData ItemOID="CO.DOMAIN" Value="CO"/>
         <ItemData ItemOID="CO.RDOMAIN" Value="AE"/>
         <ItemData ItemOID="CO.USUBJID" Value="01-710-1278"/>
         <ItemData ItemOID="CO.COSEQ" Value="103"/>
         <ItemData ItemOID="CO.IDVAR" Value="AESEQ"/>
         <ItemData ItemOID="CO.IDVARVAL" Value="6"/>
         <ItemData ItemOID="CO.COREF" IsNull="Yes"/>
         <ItemData ItemOID="CO.COVAL" Value="related to record 1 in domain DS"/>
         <ItemData ItemOID="CO.COEVAL" Value="PRINCIPAL INVESTIGATOR"/>
      </ItemGroupData>
      <ItemGroupData data:ItemGroupDataSeq="104" ItemGroupOID="CO">
         <ItemData ItemOID="CO.STUDYID" Value="CDISCPILOT01"/>
         <ItemData ItemOID="CO.DOMAIN" Value="CO"/>
         <ItemData ItemOID="CO.RDOMAIN" Value="AE"/>
         <ItemData ItemOID="CO.USUBJID" Value="01-710-1300"/>
         <ItemData ItemOID="CO.COSEQ" Value="104"/>
         <ItemData ItemOID="CO.IDVAR" Value="AESEQ"/>
         <ItemData ItemOID="CO.IDVARVAL" Value="3"/>
         <ItemData ItemOID="CO.COREF" IsNull="Yes"/>
         <ItemData ItemOID="CO.COVAL" Value="related to record 1 in domain DS"/>
         <ItemData ItemOID="CO.COEVAL" Value="PRINCIPAL INVESTIGATOR"/>
      </ItemGroupData>
      <ItemGroupData data:ItemGroupDataSeq="105" ItemGroupOID="CO">
         <ItemData ItemOID="CO.STUDYID" Value="CDISCPILOT01"/>
         <ItemData ItemOID="CO.DOMAIN" Value="CO"/>
         <ItemData ItemOID="CO.RDOMAIN" Value="AE"/>
         <ItemData ItemOID="CO.USUBJID" Value="01-710-1315"/>
         <ItemData ItemOID="CO.COSEQ" Value="105"/>
         <ItemData ItemOID="CO.IDVAR" Value="AESEQ"/>
         <ItemData ItemOID="CO.IDVARVAL" Value="2"/>
         <ItemData ItemOID="CO.COREF" IsNull="Yes"/>
         <ItemData ItemOID="CO.COVAL" Value="related to record 1 in domain DS"/>
         <ItemData ItemOID="CO.COEVAL" Value="PRINCIPAL INVESTIGATOR"/>
      </ItemGroupData>
      <ItemGroupData data:ItemGroupDataSeq="106" ItemGroupOID="CO">
         <ItemData ItemOID="CO.STUDYID" Value="CDISCPILOT01"/>
         <ItemData ItemOID="CO.DOMAIN" Value="CO"/>
         <ItemData ItemOID="CO.RDOMAIN" Value="AE"/>
         <ItemData ItemOID="CO.USUBJID" Value="01-710-1315"/>
         <ItemData ItemOID="CO.COSEQ" Value="106"/>
         <ItemData ItemOID="CO.IDVAR" Value="AESEQ"/>
         <ItemData ItemOID="CO.IDVARVAL" Value="5"/>
         <ItemData ItemOID="CO.COREF" IsNull="Yes"/>
         <ItemData ItemOID="CO.COVAL" Value="related to record 1 in domain DS"/>
         <ItemData ItemOID="CO.COEVAL" Value="PRINCIPAL INVESTIGATOR"/>
      </ItemGroupData>
      <ItemGroupData data:ItemGroupDataSeq="107" ItemGroupOID="CO">
         <ItemData ItemOID="CO.STUDYID" Value="CDISCPILOT01"/>
         <ItemData ItemOID="CO.DOMAIN" Value="CO"/>
         <ItemData ItemOID="CO.RDOMAIN" Value="AE"/>
         <ItemData ItemOID="CO.USUBJID" Value="01-710-1385"/>
         <ItemData ItemOID="CO.COSEQ" Value="107"/>
         <ItemData ItemOID="CO.IDVAR" Value="AESEQ"/>
         <ItemData ItemOID="CO.IDVARVAL" Value="7"/>
         <ItemData ItemOID="CO.COREF" IsNull="Yes"/>
         <ItemData ItemOID="CO.COVAL" Value="related to record 1 in domain DS"/>
         <ItemData ItemOID="CO.COEVAL" Value="PRINCIPAL INVESTIGATOR"/>
      </ItemGroupData>
      <ItemGroupData data:ItemGroupDataSeq="108" ItemGroupOID="CO">
         <ItemData ItemOID="CO.STUDYID" Value="CDISCPILOT01"/>
         <ItemData ItemOID="CO.DOMAIN" Value="CO"/>
         <ItemData ItemOID="CO.RDOMAIN" Value="AE"/>
         <ItemData ItemOID="CO.USUBJID" Value="01-711-1012"/>
         <ItemData ItemOID="CO.COSEQ" Value="108"/>
         <ItemData ItemOID="CO.IDVAR" Value="AESEQ"/>
         <ItemData ItemOID="CO.IDVARVAL" Value="1"/>
         <ItemData ItemOID="CO.COREF" IsNull="Yes"/>
         <ItemData ItemOID="CO.COVAL" Value="related to record 1 in domain DS"/>
         <ItemData ItemOID="CO.COEVAL" Value="PRINCIPAL INVESTIGATOR"/>
      </ItemGroupData>
      <ItemGroupData data:ItemGroupDataSeq="109" ItemGroupOID="CO">
         <ItemData ItemOID="CO.STUDYID" Value="CDISCPILOT01"/>
         <ItemData ItemOID="CO.DOMAIN" Value="CO"/>
         <ItemData ItemOID="CO.RDOMAIN" Value="AE"/>
         <ItemData ItemOID="CO.USUBJID" Value="01-711-1012"/>
         <ItemData ItemOID="CO.COSEQ" Value="109"/>
         <ItemData ItemOID="CO.IDVAR" Value="AESEQ"/>
         <ItemData ItemOID="CO.IDVARVAL" Value="3"/>
         <ItemData ItemOID="CO.COREF" IsNull="Yes"/>
         <ItemData ItemOID="CO.COVAL" Value="related to record 1 in domain DS"/>
         <ItemData ItemOID="CO.COEVAL" Value="PRINCIPAL INVESTIGATOR"/>
      </ItemGroupData>
      <ItemGroupData data:ItemGroupDataSeq="110" ItemGroupOID="CO">
         <ItemData ItemOID="CO.STUDYID" Value="CDISCPILOT01"/>
         <ItemData ItemOID="CO.DOMAIN" Value="CO"/>
         <ItemData ItemOID="CO.RDOMAIN" Value="AE"/>
         <ItemData ItemOID="CO.USUBJID" Value="01-711-1143"/>
         <ItemData ItemOID="CO.COSEQ" Value="110"/>
         <ItemData ItemOID="CO.IDVAR" Value="AESEQ"/>
         <ItemData ItemOID="CO.IDVARVAL" Value="10"/>
         <ItemData ItemOID="CO.COREF" IsNull="Yes"/>
         <ItemData ItemOID="CO.COVAL" Value="related to record 1 in domain DS"/>
         <ItemData ItemOID="CO.COEVAL" Value="PRINCIPAL INVESTIGATOR"/>
      </ItemGroupData>
      <ItemGroupData data:ItemGroupDataSeq="111" ItemGroupOID="CO">
         <ItemData ItemOID="CO.STUDYID" Value="CDISCPILOT01"/>
         <ItemData ItemOID="CO.DOMAIN" Value="CO"/>
         <ItemData ItemOID="CO.RDOMAIN" Value="AE"/>
         <ItemData ItemOID="CO.USUBJID" Value="01-711-1143"/>
         <ItemData ItemOID="CO.COSEQ" Value="111"/>
         <ItemData ItemOID="CO.IDVAR" Value="AESEQ"/>
         <ItemData ItemOID="CO.IDVARVAL" Value="14"/>
         <ItemData ItemOID="CO.COREF" IsNull="Yes"/>
         <ItemData ItemOID="CO.COVAL" Value="related to record 1 in domain DS"/>
         <ItemData ItemOID="CO.COEVAL" Value="PRINCIPAL INVESTIGATOR"/>
      </ItemGroupData>
      <ItemGroupData data:ItemGroupDataSeq="112" ItemGroupOID="CO">
         <ItemData ItemOID="CO.STUDYID" Value="CDISCPILOT01"/>
         <ItemData ItemOID="CO.DOMAIN" Value="CO"/>
         <ItemData ItemOID="CO.RDOMAIN" Value="AE"/>
         <ItemData ItemOID="CO.USUBJID" Value="01-711-1433"/>
         <ItemData ItemOID="CO.COSEQ" Value="112"/>
         <ItemData ItemOID="CO.IDVAR" Value="AESEQ"/>
         <ItemData ItemOID="CO.IDVARVAL" Value="3"/>
         <ItemData ItemOID="CO.COREF" IsNull="Yes"/>
         <ItemData ItemOID="CO.COVAL" Value="related to record 1 in domain DS"/>
         <ItemData ItemOID="CO.COEVAL" Value="PRINCIPAL INVESTIGATOR"/>
      </ItemGroupData>
      <ItemGroupData data:ItemGroupDataSeq="113" ItemGroupOID="CO">
         <ItemData ItemOID="CO.STUDYID" Value="CDISCPILOT01"/>
         <ItemData ItemOID="CO.DOMAIN" Value="CO"/>
         <ItemData ItemOID="CO.RDOMAIN" Value="AE"/>
         <ItemData ItemOID="CO.USUBJID" Value="01-713-1141"/>
         <ItemData ItemOID="CO.COSEQ" Value="113"/>
         <ItemData ItemOID="CO.IDVAR" Value="AESEQ"/>
         <ItemData ItemOID="CO.IDVARVAL" Value="4"/>
         <ItemData ItemOID="CO.COREF" IsNull="Yes"/>
         <ItemData ItemOID="CO.COVAL" Value="related to record 1 in domain DS"/>
         <ItemData ItemOID="CO.COEVAL" Value="PRINCIPAL INVESTIGATOR"/>
      </ItemGroupData>
      <ItemGroupData data:ItemGroupDataSeq="114" ItemGroupOID="CO">
         <ItemData ItemOID="CO.STUDYID" Value="CDISCPILOT01"/>
         <ItemData ItemOID="CO.DOMAIN" Value="CO"/>
         <ItemData ItemOID="CO.RDOMAIN" Value="AE"/>
         <ItemData ItemOID="CO.USUBJID" Value="01-713-1448"/>
         <ItemData ItemOID="CO.COSEQ" Value="114"/>
         <ItemData ItemOID="CO.IDVAR" Value="AESEQ"/>
         <ItemData ItemOID="CO.IDVARVAL" Value="1"/>
         <ItemData ItemOID="CO.COREF" IsNull="Yes"/>
         <ItemData ItemOID="CO.COVAL" Value="related to record 1 in domain DS"/>
         <ItemData ItemOID="CO.COEVAL" Value="PRINCIPAL INVESTIGATOR"/>
      </ItemGroupData>
      <ItemGroupData data:ItemGroupDataSeq="115" ItemGroupOID="CO">
         <ItemData ItemOID="CO.STUDYID" Value="CDISCPILOT01"/>
         <ItemData ItemOID="CO.DOMAIN" Value="CO"/>
         <ItemData ItemOID="CO.RDOMAIN" Value="AE"/>
         <ItemData ItemOID="CO.USUBJID" Value="01-713-1448"/>
         <ItemData ItemOID="CO.COSEQ" Value="115"/>
         <ItemData ItemOID="CO.IDVAR" Value="AESEQ"/>
         <ItemData ItemOID="CO.IDVARVAL" Value="3"/>
         <ItemData ItemOID="CO.COREF" IsNull="Yes"/>
         <ItemData ItemOID="CO.COVAL" Value="related to record 1 in domain DS"/>
         <ItemData ItemOID="CO.COEVAL" Value="PRINCIPAL INVESTIGATOR"/>
      </ItemGroupData>
      <ItemGroupData data:ItemGroupDataSeq="116" ItemGroupOID="CO">
         <ItemData ItemOID="CO.STUDYID" Value="CDISCPILOT01"/>
         <ItemData ItemOID="CO.DOMAIN" Value="CO"/>
         <ItemData ItemOID="CO.RDOMAIN" Value="AE"/>
         <ItemData ItemOID="CO.USUBJID" Value="01-714-1068"/>
         <ItemData ItemOID="CO.COSEQ" Value="116"/>
         <ItemData ItemOID="CO.IDVAR" Value="AESEQ"/>
         <ItemData ItemOID="CO.IDVARVAL" Value="4"/>
         <ItemData ItemOID="CO.COREF" IsNull="Yes"/>
         <ItemData ItemOID="CO.COVAL" Value="related to record 1 in domain DS"/>
         <ItemData ItemOID="CO.COEVAL" Value="PRINCIPAL INVESTIGATOR"/>
      </ItemGroupData>
      <ItemGroupData data:ItemGroupDataSeq="117" ItemGroupOID="CO">
         <ItemData ItemOID="CO.STUDYID" Value="CDISCPILOT01"/>
         <ItemData ItemOID="CO.DOMAIN" Value="CO"/>
         <ItemData ItemOID="CO.RDOMAIN" Value="AE"/>
         <ItemData ItemOID="CO.USUBJID" Value="01-714-1068"/>
         <ItemData ItemOID="CO.COSEQ" Value="117"/>
         <ItemData ItemOID="CO.IDVAR" Value="AESEQ"/>
         <ItemData ItemOID="CO.IDVARVAL" Value="6"/>
         <ItemData ItemOID="CO.COREF" IsNull="Yes"/>
         <ItemData ItemOID="CO.COVAL" Value="related to record 1 in domain DS"/>
         <ItemData ItemOID="CO.COEVAL" Value="PRINCIPAL INVESTIGATOR"/>
      </ItemGroupData>
      <ItemGroupData data:ItemGroupDataSeq="118" ItemGroupOID="CO">
         <ItemData ItemOID="CO.STUDYID" Value="CDISCPILOT01"/>
         <ItemData ItemOID="CO.DOMAIN" Value="CO"/>
         <ItemData ItemOID="CO.RDOMAIN" Value="AE"/>
         <ItemData ItemOID="CO.USUBJID" Value="01-715-1107"/>
         <ItemData ItemOID="CO.COSEQ" Value="118"/>
         <ItemData ItemOID="CO.IDVAR" Value="AESEQ"/>
         <ItemData ItemOID="CO.IDVARVAL" Value="1"/>
         <ItemData ItemOID="CO.COREF" IsNull="Yes"/>
         <ItemData ItemOID="CO.COVAL" Value="related to record 1 in domain DS"/>
         <ItemData ItemOID="CO.COEVAL" Value="PRINCIPAL INVESTIGATOR"/>
      </ItemGroupData>
      <ItemGroupData data:ItemGroupDataSeq="119" ItemGroupOID="CO">
         <ItemData ItemOID="CO.STUDYID" Value="CDISCPILOT01"/>
         <ItemData ItemOID="CO.DOMAIN" Value="CO"/>
         <ItemData ItemOID="CO.RDOMAIN" Value="AE"/>
         <ItemData ItemOID="CO.USUBJID" Value="01-715-1107"/>
         <ItemData ItemOID="CO.COSEQ" Value="119"/>
         <ItemData ItemOID="CO.IDVAR" Value="AESEQ"/>
         <ItemData ItemOID="CO.IDVARVAL" Value="3"/>
         <ItemData ItemOID="CO.COREF" IsNull="Yes"/>
         <ItemData ItemOID="CO.COVAL" Value="related to record 1 in domain DS"/>
         <ItemData ItemOID="CO.COEVAL" Value="PRINCIPAL INVESTIGATOR"/>
      </ItemGroupData>
      <ItemGroupData data:ItemGroupDataSeq="120" ItemGroupOID="CO">
         <ItemData ItemOID="CO.STUDYID" Value="CDISCPILOT01"/>
         <ItemData ItemOID="CO.DOMAIN" Value="CO"/>
         <ItemData ItemOID="CO.RDOMAIN" Value="AE"/>
         <ItemData ItemOID="CO.USUBJID" Value="01-715-1321"/>
         <ItemData ItemOID="CO.COSEQ" Value="120"/>
         <ItemData ItemOID="CO.IDVAR" Value="AESEQ"/>
         <ItemData ItemOID="CO.IDVARVAL" Value="3"/>
         <ItemData ItemOID="CO.COREF" IsNull="Yes"/>
         <ItemData ItemOID="CO.COVAL" Value="related to record 1 in domain DS"/>
         <ItemData ItemOID="CO.COEVAL" Value="PRINCIPAL INVESTIGATOR"/>
      </ItemGroupData>
      <ItemGroupData data:ItemGroupDataSeq="121" ItemGroupOID="CO">
         <ItemData ItemOID="CO.STUDYID" Value="CDISCPILOT01"/>
         <ItemData ItemOID="CO.DOMAIN" Value="CO"/>
         <ItemData ItemOID="CO.RDOMAIN" Value="AE"/>
         <ItemData ItemOID="CO.USUBJID" Value="01-715-1405"/>
         <ItemData ItemOID="CO.COSEQ" Value="121"/>
         <ItemData ItemOID="CO.IDVAR" Value="AESEQ"/>
         <ItemData ItemOID="CO.IDVARVAL" Value="1"/>
         <ItemData ItemOID="CO.COREF" IsNull="Yes"/>
         <ItemData ItemOID="CO.COVAL" Value="related to record 1 in domain DS"/>
         <ItemData ItemOID="CO.COEVAL" Value="PRINCIPAL INVESTIGATOR"/>
      </ItemGroupData>
      <ItemGroupData data:ItemGroupDataSeq="122" ItemGroupOID="CO">
         <ItemData ItemOID="CO.STUDYID" Value="CDISCPILOT01"/>
         <ItemData ItemOID="CO.DOMAIN" Value="CO"/>
         <ItemData ItemOID="CO.RDOMAIN" Value="AE"/>
         <ItemData ItemOID="CO.USUBJID" Value="01-716-1063"/>
         <ItemData ItemOID="CO.COSEQ" Value="122"/>
         <ItemData ItemOID="CO.IDVAR" Value="AESEQ"/>
         <ItemData ItemOID="CO.IDVARVAL" Value="6"/>
         <ItemData ItemOID="CO.COREF" IsNull="Yes"/>
         <ItemData ItemOID="CO.COVAL" Value="related to record 1 in domain DS"/>
         <ItemData ItemOID="CO.COEVAL" Value="PRINCIPAL INVESTIGATOR"/>
      </ItemGroupData>
      <ItemGroupData data:ItemGroupDataSeq="123" ItemGroupOID="CO">
         <ItemData ItemOID="CO.STUDYID" Value="CDISCPILOT01"/>
         <ItemData ItemOID="CO.DOMAIN" Value="CO"/>
         <ItemData ItemOID="CO.RDOMAIN" Value="AE"/>
         <ItemData ItemOID="CO.USUBJID" Value="01-716-1071"/>
         <ItemData ItemOID="CO.COSEQ" Value="123"/>
         <ItemData ItemOID="CO.IDVAR" Value="AESEQ"/>
         <ItemData ItemOID="CO.IDVARVAL" Value="3"/>
         <ItemData ItemOID="CO.COREF" IsNull="Yes"/>
         <ItemData ItemOID="CO.COVAL" Value="related to record 1 in domain DS"/>
         <ItemData ItemOID="CO.COEVAL" Value="PRINCIPAL INVESTIGATOR"/>
      </ItemGroupData>
      <ItemGroupData data:ItemGroupDataSeq="124" ItemGroupOID="CO">
         <ItemData ItemOID="CO.STUDYID" Value="CDISCPILOT01"/>
         <ItemData ItemOID="CO.DOMAIN" Value="CO"/>
         <ItemData ItemOID="CO.RDOMAIN" Value="AE"/>
         <ItemData ItemOID="CO.USUBJID" Value="01-716-1094"/>
         <ItemData ItemOID="CO.COSEQ" Value="124"/>
         <ItemData ItemOID="CO.IDVAR" Value="AESEQ"/>
         <ItemData ItemOID="CO.IDVARVAL" Value="1"/>
         <ItemData ItemOID="CO.COREF" IsNull="Yes"/>
         <ItemData ItemOID="CO.COVAL" Value="related to record 1 in domain DS"/>
         <ItemData ItemOID="CO.COEVAL" Value="PRINCIPAL INVESTIGATOR"/>
      </ItemGroupData>
      <ItemGroupData data:ItemGroupDataSeq="125" ItemGroupOID="CO">
         <ItemData ItemOID="CO.STUDYID" Value="CDISCPILOT01"/>
         <ItemData ItemOID="CO.DOMAIN" Value="CO"/>
         <ItemData ItemOID="CO.RDOMAIN" Value="AE"/>
         <ItemData ItemOID="CO.USUBJID" Value="01-716-1151"/>
         <ItemData ItemOID="CO.COSEQ" Value="125"/>
         <ItemData ItemOID="CO.IDVAR" Value="AESEQ"/>
         <ItemData ItemOID="CO.IDVARVAL" Value="2"/>
         <ItemData ItemOID="CO.COREF" IsNull="Yes"/>
         <ItemData ItemOID="CO.COVAL" Value="related to record 1 in domain DS"/>
         <ItemData ItemOID="CO.COEVAL" Value="PRINCIPAL INVESTIGATOR"/>
      </ItemGroupData>
      <ItemGroupData data:ItemGroupDataSeq="126" ItemGroupOID="CO">
         <ItemData ItemOID="CO.STUDYID" Value="CDISCPILOT01"/>
         <ItemData ItemOID="CO.DOMAIN" Value="CO"/>
         <ItemData ItemOID="CO.RDOMAIN" Value="AE"/>
         <ItemData ItemOID="CO.USUBJID" Value="01-716-1189"/>
         <ItemData ItemOID="CO.COSEQ" Value="126"/>
         <ItemData ItemOID="CO.IDVAR" Value="AESEQ"/>
         <ItemData ItemOID="CO.IDVARVAL" Value="4"/>
         <ItemData ItemOID="CO.COREF" IsNull="Yes"/>
         <ItemData ItemOID="CO.COVAL" Value="related to record 1 in domain DS"/>
         <ItemData ItemOID="CO.COEVAL" Value="PRINCIPAL INVESTIGATOR"/>
      </ItemGroupData>
      <ItemGroupData data:ItemGroupDataSeq="127" ItemGroupOID="CO">
         <ItemData ItemOID="CO.STUDYID" Value="CDISCPILOT01"/>
         <ItemData ItemOID="CO.DOMAIN" Value="CO"/>
         <ItemData ItemOID="CO.RDOMAIN" Value="AE"/>
         <ItemData ItemOID="CO.USUBJID" Value="01-716-1229"/>
         <ItemData ItemOID="CO.COSEQ" Value="127"/>
         <ItemData ItemOID="CO.IDVAR" Value="AESEQ"/>
         <ItemData ItemOID="CO.IDVARVAL" Value="1"/>
         <ItemData ItemOID="CO.COREF" IsNull="Yes"/>
         <ItemData ItemOID="CO.COVAL" Value="related to record 1 in domain DS"/>
         <ItemData ItemOID="CO.COEVAL" Value="PRINCIPAL INVESTIGATOR"/>
      </ItemGroupData>
      <ItemGroupData data:ItemGroupDataSeq="128" ItemGroupOID="CO">
         <ItemData ItemOID="CO.STUDYID" Value="CDISCPILOT01"/>
         <ItemData ItemOID="CO.DOMAIN" Value="CO"/>
         <ItemData ItemOID="CO.RDOMAIN" Value="AE"/>
         <ItemData ItemOID="CO.USUBJID" Value="01-716-1298"/>
         <ItemData ItemOID="CO.COSEQ" Value="128"/>
         <ItemData ItemOID="CO.IDVAR" Value="AESEQ"/>
         <ItemData ItemOID="CO.IDVARVAL" Value="3"/>
         <ItemData ItemOID="CO.COREF" IsNull="Yes"/>
         <ItemData ItemOID="CO.COVAL" Value="related to record 1 in domain DS"/>
         <ItemData ItemOID="CO.COEVAL" Value="PRINCIPAL INVESTIGATOR"/>
      </ItemGroupData>
      <ItemGroupData data:ItemGroupDataSeq="129" ItemGroupOID="CO">
         <ItemData ItemOID="CO.STUDYID" Value="CDISCPILOT01"/>
         <ItemData ItemOID="CO.DOMAIN" Value="CO"/>
         <ItemData ItemOID="CO.RDOMAIN" Value="AE"/>
         <ItemData ItemOID="CO.USUBJID" Value="01-716-1298"/>
         <ItemData ItemOID="CO.COSEQ" Value="129"/>
         <ItemData ItemOID="CO.IDVAR" Value="AESEQ"/>
         <ItemData ItemOID="CO.IDVARVAL" Value="6"/>
         <ItemData ItemOID="CO.COREF" IsNull="Yes"/>
         <ItemData ItemOID="CO.COVAL" Value="related to record 1 in domain DS"/>
         <ItemData ItemOID="CO.COEVAL" Value="PRINCIPAL INVESTIGATOR"/>
      </ItemGroupData>
      <ItemGroupData data:ItemGroupDataSeq="130" ItemGroupOID="CO">
         <ItemData ItemOID="CO.STUDYID" Value="CDISCPILOT01"/>
         <ItemData ItemOID="CO.DOMAIN" Value="CO"/>
         <ItemData ItemOID="CO.RDOMAIN" Value="AE"/>
         <ItemData ItemOID="CO.USUBJID" Value="01-716-1373"/>
         <ItemData ItemOID="CO.COSEQ" Value="130"/>
         <ItemData ItemOID="CO.IDVAR" Value="AESEQ"/>
         <ItemData ItemOID="CO.IDVARVAL" Value="2"/>
         <ItemData ItemOID="CO.COREF" IsNull="Yes"/>
         <ItemData ItemOID="CO.COVAL" Value="related to record 1 in domain DS"/>
         <ItemData ItemOID="CO.COEVAL" Value="PRINCIPAL INVESTIGATOR"/>
      </ItemGroupData>
      <ItemGroupData data:ItemGroupDataSeq="131" ItemGroupOID="CO">
         <ItemData ItemOID="CO.STUDYID" Value="CDISCPILOT01"/>
         <ItemData ItemOID="CO.DOMAIN" Value="CO"/>
         <ItemData ItemOID="CO.RDOMAIN" Value="AE"/>
         <ItemData ItemOID="CO.USUBJID" Value="01-718-1066"/>
         <ItemData ItemOID="CO.COSEQ" Value="131"/>
         <ItemData ItemOID="CO.IDVAR" Value="AESEQ"/>
         <ItemData ItemOID="CO.IDVARVAL" Value="3"/>
         <ItemData ItemOID="CO.COREF" IsNull="Yes"/>
         <ItemData ItemOID="CO.COVAL" Value="related to record 1 in domain DS"/>
         <ItemData ItemOID="CO.COEVAL" Value="PRINCIPAL INVESTIGATOR"/>
      </ItemGroupData>
      <ItemGroupData data:ItemGroupDataSeq="132" ItemGroupOID="CO">
         <ItemData ItemOID="CO.STUDYID" Value="CDISCPILOT01"/>
         <ItemData ItemOID="CO.DOMAIN" Value="CO"/>
         <ItemData ItemOID="CO.RDOMAIN" Value="AE"/>
         <ItemData ItemOID="CO.USUBJID" Value="01-718-1079"/>
         <ItemData ItemOID="CO.COSEQ" Value="132"/>
         <ItemData ItemOID="CO.IDVAR" Value="AESEQ"/>
         <ItemData ItemOID="CO.IDVARVAL" Value="2"/>
         <ItemData ItemOID="CO.COREF" IsNull="Yes"/>
         <ItemData ItemOID="CO.COVAL" Value="related to record 1 in domain DS"/>
         <ItemData ItemOID="CO.COEVAL" Value="PRINCIPAL INVESTIGATOR"/>
      </ItemGroupData>
      <ItemGroupData data:ItemGroupDataSeq="133" ItemGroupOID="CO">
         <ItemData ItemOID="CO.STUDYID" Value="CDISCPILOT01"/>
         <ItemData ItemOID="CO.DOMAIN" Value="CO"/>
         <ItemData ItemOID="CO.RDOMAIN" Value="AE"/>
         <ItemData ItemOID="CO.USUBJID" Value="01-718-1079"/>
         <ItemData ItemOID="CO.COSEQ" Value="133"/>
         <ItemData ItemOID="CO.IDVAR" Value="AESEQ"/>
         <ItemData ItemOID="CO.IDVARVAL" Value="3"/>
         <ItemData ItemOID="CO.COREF" IsNull="Yes"/>
         <ItemData ItemOID="CO.COVAL" Value="related to record 1 in domain DS"/>
         <ItemData ItemOID="CO.COEVAL" Value="PRINCIPAL INVESTIGATOR"/>
      </ItemGroupData>
      <ItemGroupData data:ItemGroupDataSeq="134" ItemGroupOID="CO">
         <ItemData ItemOID="CO.STUDYID" Value="CDISCPILOT01"/>
         <ItemData ItemOID="CO.DOMAIN" Value="CO"/>
         <ItemData ItemOID="CO.RDOMAIN" Value="AE"/>
         <ItemData ItemOID="CO.USUBJID" Value="01-718-1170"/>
         <ItemData ItemOID="CO.COSEQ" Value="134"/>
         <ItemData ItemOID="CO.IDVAR" Value="AESEQ"/>
         <ItemData ItemOID="CO.IDVARVAL" Value="5"/>
         <ItemData ItemOID="CO.COREF" IsNull="Yes"/>
         <ItemData ItemOID="CO.COVAL" Value="related to record 1 in domain DS"/>
         <ItemData ItemOID="CO.COEVAL" Value="PRINCIPAL INVESTIGATOR"/>
      </ItemGroupData>
      <ItemGroupData data:ItemGroupDataSeq="135" ItemGroupOID="CO">
         <ItemData ItemOID="CO.STUDYID" Value="CDISCPILOT01"/>
         <ItemData ItemOID="CO.DOMAIN" Value="CO"/>
         <ItemData ItemOID="CO.RDOMAIN" Value="AE"/>
         <ItemData ItemOID="CO.USUBJID" Value="01-718-1250"/>
         <ItemData ItemOID="CO.COSEQ" Value="135"/>
         <ItemData ItemOID="CO.IDVAR" Value="AESEQ"/>
         <ItemData ItemOID="CO.IDVARVAL" Value="9"/>
         <ItemData ItemOID="CO.COREF" IsNull="Yes"/>
         <ItemData ItemOID="CO.COVAL" Value="related to record 1 in domain DS"/>
         <ItemData ItemOID="CO.COEVAL" Value="PRINCIPAL INVESTIGATOR"/>
      </ItemGroupData>
      <ItemGroupData data:ItemGroupDataSeq="136" ItemGroupOID="CO">
         <ItemData ItemOID="CO.STUDYID" Value="CDISCPILOT01"/>
         <ItemData ItemOID="CO.DOMAIN" Value="CO"/>
         <ItemData ItemOID="CO.RDOMAIN" Value="AE"/>
         <ItemData ItemOID="CO.USUBJID" Value="01-718-1250"/>
         <ItemData ItemOID="CO.COSEQ" Value="136"/>
         <ItemData ItemOID="CO.IDVAR" Value="AESEQ"/>
         <ItemData ItemOID="CO.IDVARVAL" Value="10"/>
         <ItemData ItemOID="CO.COREF" IsNull="Yes"/>
         <ItemData ItemOID="CO.COVAL" Value="related to record 1 in domain DS"/>
         <ItemData ItemOID="CO.COEVAL" Value="PRINCIPAL INVESTIGATOR"/>
      </ItemGroupData>
      <ItemGroupData data:ItemGroupDataSeq="137" ItemGroupOID="CO">
         <ItemData ItemOID="CO.STUDYID" Value="CDISCPILOT01"/>
         <ItemData ItemOID="CO.DOMAIN" Value="CO"/>
         <ItemData ItemOID="CO.RDOMAIN" Value="AE"/>
         <ItemData ItemOID="CO.USUBJID" Value="01-718-1250"/>
         <ItemData ItemOID="CO.COSEQ" Value="137"/>
         <ItemData ItemOID="CO.IDVAR" Value="AESEQ"/>
         <ItemData ItemOID="CO.IDVARVAL" Value="11"/>
         <ItemData ItemOID="CO.COREF" IsNull="Yes"/>
         <ItemData ItemOID="CO.COVAL" Value="related to record 1 in domain DS"/>
         <ItemData ItemOID="CO.COEVAL" Value="PRINCIPAL INVESTIGATOR"/>
      </ItemGroupData>
      <ItemGroupData data:ItemGroupDataSeq="138" ItemGroupOID="CO">
         <ItemData ItemOID="CO.STUDYID" Value="CDISCPILOT01"/>
         <ItemData ItemOID="CO.DOMAIN" Value="CO"/>
         <ItemData ItemOID="CO.RDOMAIN" Value="AE"/>
         <ItemData ItemOID="CO.USUBJID" Value="01-718-1371"/>
         <ItemData ItemOID="CO.COSEQ" Value="138"/>
         <ItemData ItemOID="CO.IDVAR" Value="AESEQ"/>
         <ItemData ItemOID="CO.IDVARVAL" Value="3"/>
         <ItemData ItemOID="CO.COREF" IsNull="Yes"/>
         <ItemData ItemOID="CO.COVAL" Value="related to record 1 in domain DS"/>
         <ItemData ItemOID="CO.COEVAL" Value="PRINCIPAL INVESTIGATOR"/>
      </ItemGroupData>
      <ItemGroupData data:ItemGroupDataSeq="139" ItemGroupOID="CO">
         <ItemData ItemOID="CO.STUDYID" Value="CDISCPILOT01"/>
         <ItemData ItemOID="CO.DOMAIN" Value="CO"/>
         <ItemData ItemOID="CO.RDOMAIN" Value="AE"/>
         <ItemData ItemOID="CO.USUBJID" Value="01-718-1371"/>
         <ItemData ItemOID="CO.COSEQ" Value="139"/>
         <ItemData ItemOID="CO.IDVAR" Value="AESEQ"/>
         <ItemData ItemOID="CO.IDVARVAL" Value="6"/>
         <ItemData ItemOID="CO.COREF" IsNull="Yes"/>
         <ItemData ItemOID="CO.COVAL" Value="related to record 1 in domain DS"/>
         <ItemData ItemOID="CO.COEVAL" Value="PRINCIPAL INVESTIGATOR"/>
      </ItemGroupData>
      <ItemGroupData data:ItemGroupDataSeq="140" ItemGroupOID="CO">
         <ItemData ItemOID="CO.STUDYID" Value="CDISCPILOT01"/>
         <ItemData ItemOID="CO.DOMAIN" Value="CO"/>
         <ItemData ItemOID="CO.RDOMAIN" Value="DS"/>
         <ItemData ItemOID="CO.USUBJID" Value="01-701-1023"/>
         <ItemData ItemOID="CO.COSEQ" Value="140"/>
         <ItemData ItemOID="CO.IDVAR" Value="DSSEQ"/>
         <ItemData ItemOID="CO.IDVARVAL" Value="1"/>
         <ItemData ItemOID="CO.COREF" IsNull="Yes"/>
         <ItemData ItemOID="CO.COVAL" Value="related to record 2 in domain AE"/>
         <ItemData ItemOID="CO.COEVAL" Value="PRINCIPAL INVESTIGATOR"/>
      </ItemGroupData>
      <ItemGroupData data:ItemGroupDataSeq="141" ItemGroupOID="CO">
         <ItemData ItemOID="CO.STUDYID" Value="CDISCPILOT01"/>
         <ItemData ItemOID="CO.DOMAIN" Value="CO"/>
         <ItemData ItemOID="CO.RDOMAIN" Value="DS"/>
         <ItemData ItemOID="CO.USUBJID" Value="01-701-1047"/>
         <ItemData ItemOID="CO.COSEQ" Value="141"/>
         <ItemData ItemOID="CO.IDVAR" Value="DSSEQ"/>
         <ItemData ItemOID="CO.IDVARVAL" Value="1"/>
         <ItemData ItemOID="CO.COREF" IsNull="Yes"/>
         <ItemData ItemOID="CO.COVAL" Value="related to record 4 in domain AE"/>
         <ItemData ItemOID="CO.COEVAL" Value="PRINCIPAL INVESTIGATOR"/>
      </ItemGroupData>
      <ItemGroupData data:ItemGroupDataSeq="142" ItemGroupOID="CO">
         <ItemData ItemOID="CO.STUDYID" Value="CDISCPILOT01"/>
         <ItemData ItemOID="CO.DOMAIN" Value="CO"/>
         <ItemData ItemOID="CO.RDOMAIN" Value="DS"/>
         <ItemData ItemOID="CO.USUBJID" Value="01-701-1111"/>
         <ItemData ItemOID="CO.COSEQ" Value="142"/>
         <ItemData ItemOID="CO.IDVAR" Value="DSSEQ"/>
         <ItemData ItemOID="CO.IDVARVAL" Value="1"/>
         <ItemData ItemOID="CO.COREF" IsNull="Yes"/>
         <ItemData ItemOID="CO.COVAL" Value="related to record 7 in domain AE"/>
         <ItemData ItemOID="CO.COEVAL" Value="PRINCIPAL INVESTIGATOR"/>
      </ItemGroupData>
      <ItemGroupData data:ItemGroupDataSeq="143" ItemGroupOID="CO">
         <ItemData ItemOID="CO.STUDYID" Value="CDISCPILOT01"/>
         <ItemData ItemOID="CO.DOMAIN" Value="CO"/>
         <ItemData ItemOID="CO.RDOMAIN" Value="DS"/>
         <ItemData ItemOID="CO.USUBJID" Value="01-701-1115"/>
         <ItemData ItemOID="CO.COSEQ" Value="143"/>
         <ItemData ItemOID="CO.IDVAR" Value="DSSEQ"/>
         <ItemData ItemOID="CO.IDVARVAL" Value="1"/>
         <ItemData ItemOID="CO.COREF" IsNull="Yes"/>
         <ItemData ItemOID="CO.COVAL" Value="related to record 7 in domain AE"/>
         <ItemData ItemOID="CO.COEVAL" Value="PRINCIPAL INVESTIGATOR"/>
      </ItemGroupData>
      <ItemGroupData data:ItemGroupDataSeq="144" ItemGroupOID="CO">
         <ItemData ItemOID="CO.STUDYID" Value="CDISCPILOT01"/>
         <ItemData ItemOID="CO.DOMAIN" Value="CO"/>
         <ItemData ItemOID="CO.RDOMAIN" Value="DS"/>
         <ItemData ItemOID="CO.USUBJID" Value="01-701-1146"/>
         <ItemData ItemOID="CO.COSEQ" Value="144"/>
         <ItemData ItemOID="CO.IDVAR" Value="DSSEQ"/>
         <ItemData ItemOID="CO.IDVARVAL" Value="1"/>
         <ItemData ItemOID="CO.COREF" IsNull="Yes"/>
         <ItemData ItemOID="CO.COVAL" Value="related to record 6,8 in domain AE"/>
         <ItemData ItemOID="CO.COEVAL" Value="PRINCIPAL INVESTIGATOR"/>
      </ItemGroupData>
      <ItemGroupData data:ItemGroupDataSeq="145" ItemGroupOID="CO">
         <ItemData ItemOID="CO.STUDYID" Value="CDISCPILOT01"/>
         <ItemData ItemOID="CO.DOMAIN" Value="CO"/>
         <ItemData ItemOID="CO.RDOMAIN" Value="DS"/>
         <ItemData ItemOID="CO.USUBJID" Value="01-701-1180"/>
         <ItemData ItemOID="CO.COSEQ" Value="145"/>
         <ItemData ItemOID="CO.IDVAR" Value="DSSEQ"/>
         <ItemData ItemOID="CO.IDVARVAL" Value="1"/>
         <ItemData ItemOID="CO.COREF" IsNull="Yes"/>
         <ItemData ItemOID="CO.COVAL" Value="related to record 9 in domain AE"/>
         <ItemData ItemOID="CO.COEVAL" Value="PRINCIPAL INVESTIGATOR"/>
      </ItemGroupData>
      <ItemGroupData data:ItemGroupDataSeq="146" ItemGroupOID="CO">
         <ItemData ItemOID="CO.STUDYID" Value="CDISCPILOT01"/>
         <ItemData ItemOID="CO.DOMAIN" Value="CO"/>
         <ItemData ItemOID="CO.RDOMAIN" Value="DS"/>
         <ItemData ItemOID="CO.USUBJID" Value="01-701-1181"/>
         <ItemData ItemOID="CO.COSEQ" Value="146"/>
         <ItemData ItemOID="CO.IDVAR" Value="DSSEQ"/>
         <ItemData ItemOID="CO.IDVARVAL" Value="1"/>
         <ItemData ItemOID="CO.COREF" IsNull="Yes"/>
         <ItemData ItemOID="CO.COVAL" Value="related to record 1 in domain AE"/>
         <ItemData ItemOID="CO.COEVAL" Value="PRINCIPAL INVESTIGATOR"/>
      </ItemGroupData>
      <ItemGroupData data:ItemGroupDataSeq="147" ItemGroupOID="CO">
         <ItemData ItemOID="CO.STUDYID" Value="CDISCPILOT01"/>
         <ItemData ItemOID="CO.DOMAIN" Value="CO"/>
         <ItemData ItemOID="CO.RDOMAIN" Value="DS"/>
         <ItemData ItemOID="CO.USUBJID" Value="01-701-1188"/>
         <ItemData ItemOID="CO.COSEQ" Value="147"/>
         <ItemData ItemOID="CO.IDVAR" Value="DSSEQ"/>
         <ItemData ItemOID="CO.IDVARVAL" Value="1"/>
         <ItemData ItemOID="CO.COREF" IsNull="Yes"/>
         <ItemData ItemOID="CO.COVAL" Value="related to record 7 in domain AE"/>
         <ItemData ItemOID="CO.COEVAL" Value="PRINCIPAL INVESTIGATOR"/>
      </ItemGroupData>
      <ItemGroupData data:ItemGroupDataSeq="148" ItemGroupOID="CO">
         <ItemData ItemOID="CO.STUDYID" Value="CDISCPILOT01"/>
         <ItemData ItemOID="CO.DOMAIN" Value="CO"/>
         <ItemData ItemOID="CO.RDOMAIN" Value="DS"/>
         <ItemData ItemOID="CO.USUBJID" Value="01-701-1211"/>
         <ItemData ItemOID="CO.COSEQ" Value="148"/>
         <ItemData ItemOID="CO.IDVAR" Value="DSSEQ"/>
         <ItemData ItemOID="CO.IDVARVAL" Value="1"/>
         <ItemData ItemOID="CO.COREF" IsNull="Yes"/>
         <ItemData ItemOID="CO.COVAL" Value="related to record 9 in domain AE"/>
         <ItemData ItemOID="CO.COEVAL" Value="PRINCIPAL INVESTIGATOR"/>
      </ItemGroupData>
      <ItemGroupData data:ItemGroupDataSeq="149" ItemGroupOID="CO">
         <ItemData ItemOID="CO.STUDYID" Value="CDISCPILOT01"/>
         <ItemData ItemOID="CO.DOMAIN" Value="CO"/>
         <ItemData ItemOID="CO.RDOMAIN" Value="DS"/>
         <ItemData ItemOID="CO.USUBJID" Value="01-701-1294"/>
         <ItemData ItemOID="CO.COSEQ" Value="149"/>
         <ItemData ItemOID="CO.IDVAR" Value="DSSEQ"/>
         <ItemData ItemOID="CO.IDVARVAL" Value="1"/>
         <ItemData ItemOID="CO.COREF" IsNull="Yes"/>
         <ItemData ItemOID="CO.COVAL" Value="related to record 6 in domain AE"/>
         <ItemData ItemOID="CO.COEVAL" Value="PRINCIPAL INVESTIGATOR"/>
      </ItemGroupData>
      <ItemGroupData data:ItemGroupDataSeq="150" ItemGroupOID="CO">
         <ItemData ItemOID="CO.STUDYID" Value="CDISCPILOT01"/>
         <ItemData ItemOID="CO.DOMAIN" Value="CO"/>
         <ItemData ItemOID="CO.RDOMAIN" Value="DS"/>
         <ItemData ItemOID="CO.USUBJID" Value="01-701-1302"/>
         <ItemData ItemOID="CO.COSEQ" Value="150"/>
         <ItemData ItemOID="CO.IDVAR" Value="DSSEQ"/>
         <ItemData ItemOID="CO.IDVARVAL" Value="1"/>
         <ItemData ItemOID="CO.COREF" IsNull="Yes"/>
         <ItemData ItemOID="CO.COVAL" Value="related to record 8,18 in domain AE"/>
         <ItemData ItemOID="CO.COEVAL" Value="PRINCIPAL INVESTIGATOR"/>
      </ItemGroupData>
      <ItemGroupData data:ItemGroupDataSeq="151" ItemGroupOID="CO">
         <ItemData ItemOID="CO.STUDYID" Value="CDISCPILOT01"/>
         <ItemData ItemOID="CO.DOMAIN" Value="CO"/>
         <ItemData ItemOID="CO.RDOMAIN" Value="DS"/>
         <ItemData ItemOID="CO.USUBJID" Value="01-701-1341"/>
         <ItemData ItemOID="CO.COSEQ" Value="151"/>
         <ItemData ItemOID="CO.IDVAR" Value="DSSEQ"/>
         <ItemData ItemOID="CO.IDVARVAL" Value="1"/>
         <ItemData ItemOID="CO.COREF" IsNull="Yes"/>
         <ItemData ItemOID="CO.COVAL" Value="related to record 5 in domain AE"/>
         <ItemData ItemOID="CO.COEVAL" Value="PRINCIPAL INVESTIGATOR"/>
      </ItemGroupData>
      <ItemGroupData data:ItemGroupDataSeq="152" ItemGroupOID="CO">
         <ItemData ItemOID="CO.STUDYID" Value="CDISCPILOT01"/>
         <ItemData ItemOID="CO.DOMAIN" Value="CO"/>
         <ItemData ItemOID="CO.RDOMAIN" Value="DS"/>
         <ItemData ItemOID="CO.USUBJID" Value="01-701-1444"/>
         <ItemData ItemOID="CO.COSEQ" Value="152"/>
         <ItemData ItemOID="CO.IDVAR" Value="DSSEQ"/>
         <ItemData ItemOID="CO.IDVARVAL" Value="1"/>
         <ItemData ItemOID="CO.COREF" IsNull="Yes"/>
         <ItemData ItemOID="CO.COVAL" Value="related to record 7 in domain AE"/>
         <ItemData ItemOID="CO.COEVAL" Value="PRINCIPAL INVESTIGATOR"/>
      </ItemGroupData>
      <ItemGroupData data:ItemGroupDataSeq="153" ItemGroupOID="CO">
         <ItemData ItemOID="CO.STUDYID" Value="CDISCPILOT01"/>
         <ItemData ItemOID="CO.DOMAIN" Value="CO"/>
         <ItemData ItemOID="CO.RDOMAIN" Value="DS"/>
         <ItemData ItemOID="CO.USUBJID" Value="01-703-1076"/>
         <ItemData ItemOID="CO.COSEQ" Value="153"/>
         <ItemData ItemOID="CO.IDVAR" Value="DSSEQ"/>
         <ItemData ItemOID="CO.IDVARVAL" Value="1"/>
         <ItemData ItemOID="CO.COREF" IsNull="Yes"/>
         <ItemData ItemOID="CO.COVAL" Value="related to record 4,7 in domain AE"/>
         <ItemData ItemOID="CO.COEVAL" Value="PRINCIPAL INVESTIGATOR"/>
      </ItemGroupData>
      <ItemGroupData data:ItemGroupDataSeq="154" ItemGroupOID="CO">
         <ItemData ItemOID="CO.STUDYID" Value="CDISCPILOT01"/>
         <ItemData ItemOID="CO.DOMAIN" Value="CO"/>
         <ItemData ItemOID="CO.RDOMAIN" Value="DS"/>
         <ItemData ItemOID="CO.USUBJID" Value="01-703-1086"/>
         <ItemData ItemOID="CO.COSEQ" Value="154"/>
         <ItemData ItemOID="CO.IDVAR" Value="DSSEQ"/>
         <ItemData ItemOID="CO.IDVARVAL" Value="1"/>
         <ItemData ItemOID="CO.COREF" IsNull="Yes"/>
         <ItemData ItemOID="CO.COVAL" Value="related to record 1,2,3,6 in domain AE"/>
         <ItemData ItemOID="CO.COEVAL" Value="PRINCIPAL INVESTIGATOR"/>
      </ItemGroupData>
      <ItemGroupData data:ItemGroupDataSeq="155" ItemGroupOID="CO">
         <ItemData ItemOID="CO.STUDYID" Value="CDISCPILOT01"/>
         <ItemData ItemOID="CO.DOMAIN" Value="CO"/>
         <ItemData ItemOID="CO.RDOMAIN" Value="DS"/>
         <ItemData ItemOID="CO.USUBJID" Value="01-703-1119"/>
         <ItemData ItemOID="CO.COSEQ" Value="155"/>
         <ItemData ItemOID="CO.IDVAR" Value="DSSEQ"/>
         <ItemData ItemOID="CO.IDVARVAL" Value="1"/>
         <ItemData ItemOID="CO.COREF" IsNull="Yes"/>
         <ItemData ItemOID="CO.COVAL" Value="related to record 3,4 in domain AE"/>
         <ItemData ItemOID="CO.COEVAL" Value="PRINCIPAL INVESTIGATOR"/>
      </ItemGroupData>
      <ItemGroupData data:ItemGroupDataSeq="156" ItemGroupOID="CO">
         <ItemData ItemOID="CO.STUDYID" Value="CDISCPILOT01"/>
         <ItemData ItemOID="CO.DOMAIN" Value="CO"/>
         <ItemData ItemOID="CO.RDOMAIN" Value="DS"/>
         <ItemData ItemOID="CO.USUBJID" Value="01-703-1182"/>
         <ItemData ItemOID="CO.COSEQ" Value="156"/>
         <ItemData ItemOID="CO.IDVAR" Value="DSSEQ"/>
         <ItemData ItemOID="CO.IDVARVAL" Value="1"/>
         <ItemData ItemOID="CO.COREF" IsNull="Yes"/>
         <ItemData ItemOID="CO.COVAL" Value="related to record 3,4 in domain AE"/>
         <ItemData ItemOID="CO.COEVAL" Value="PRINCIPAL INVESTIGATOR"/>
      </ItemGroupData>
      <ItemGroupData data:ItemGroupDataSeq="157" ItemGroupOID="CO">
         <ItemData ItemOID="CO.STUDYID" Value="CDISCPILOT01"/>
         <ItemData ItemOID="CO.DOMAIN" Value="CO"/>
         <ItemData ItemOID="CO.RDOMAIN" Value="DS"/>
         <ItemData ItemOID="CO.USUBJID" Value="01-703-1258"/>
         <ItemData ItemOID="CO.COSEQ" Value="157"/>
         <ItemData ItemOID="CO.IDVAR" Value="DSSEQ"/>
         <ItemData ItemOID="CO.IDVARVAL" Value="1"/>
         <ItemData ItemOID="CO.COREF" IsNull="Yes"/>
         <ItemData ItemOID="CO.COVAL" Value="related to record 4,6,7 in domain AE"/>
         <ItemData ItemOID="CO.COEVAL" Value="PRINCIPAL INVESTIGATOR"/>
      </ItemGroupData>
      <ItemGroupData data:ItemGroupDataSeq="158" ItemGroupOID="CO">
         <ItemData ItemOID="CO.STUDYID" Value="CDISCPILOT01"/>
         <ItemData ItemOID="CO.DOMAIN" Value="CO"/>
         <ItemData ItemOID="CO.RDOMAIN" Value="DS"/>
         <ItemData ItemOID="CO.USUBJID" Value="01-703-1403"/>
         <ItemData ItemOID="CO.COSEQ" Value="158"/>
         <ItemData ItemOID="CO.IDVAR" Value="DSSEQ"/>
         <ItemData ItemOID="CO.IDVARVAL" Value="1"/>
         <ItemData ItemOID="CO.COREF" IsNull="Yes"/>
         <ItemData ItemOID="CO.COVAL" Value="related to record 2 in domain AE"/>
         <ItemData ItemOID="CO.COEVAL" Value="PRINCIPAL INVESTIGATOR"/>
      </ItemGroupData>
      <ItemGroupData data:ItemGroupDataSeq="159" ItemGroupOID="CO">
         <ItemData ItemOID="CO.STUDYID" Value="CDISCPILOT01"/>
         <ItemData ItemOID="CO.DOMAIN" Value="CO"/>
         <ItemData ItemOID="CO.RDOMAIN" Value="DS"/>
         <ItemData ItemOID="CO.USUBJID" Value="01-704-1008"/>
         <ItemData ItemOID="CO.COSEQ" Value="159"/>
         <ItemData ItemOID="CO.IDVAR" Value="DSSEQ"/>
         <ItemData ItemOID="CO.IDVARVAL" Value="1"/>
         <ItemData ItemOID="CO.COREF" IsNull="Yes"/>
         <ItemData ItemOID="CO.COVAL" Value="related to record 3 in domain AE"/>
         <ItemData ItemOID="CO.COEVAL" Value="PRINCIPAL INVESTIGATOR"/>
      </ItemGroupData>
      <ItemGroupData data:ItemGroupDataSeq="160" ItemGroupOID="CO">
         <ItemData ItemOID="CO.STUDYID" Value="CDISCPILOT01"/>
         <ItemData ItemOID="CO.DOMAIN" Value="CO"/>
         <ItemData ItemOID="CO.RDOMAIN" Value="DS"/>
         <ItemData ItemOID="CO.USUBJID" Value="01-704-1017"/>
         <ItemData ItemOID="CO.COSEQ" Value="160"/>
         <ItemData ItemOID="CO.IDVAR" Value="DSSEQ"/>
         <ItemData ItemOID="CO.IDVARVAL" Value="1"/>
         <ItemData ItemOID="CO.COREF" IsNull="Yes"/>
         <ItemData ItemOID="CO.COVAL" Value="related to record 5,7 in domain AE"/>
         <ItemData ItemOID="CO.COEVAL" Value="PRINCIPAL INVESTIGATOR"/>
      </ItemGroupData>
      <ItemGroupData data:ItemGroupDataSeq="161" ItemGroupOID="CO">
         <ItemData ItemOID="CO.STUDYID" Value="CDISCPILOT01"/>
         <ItemData ItemOID="CO.DOMAIN" Value="CO"/>
         <ItemData ItemOID="CO.RDOMAIN" Value="DS"/>
         <ItemData ItemOID="CO.USUBJID" Value="01-704-1025"/>
         <ItemData ItemOID="CO.COSEQ" Value="161"/>
         <ItemData ItemOID="CO.IDVAR" Value="DSSEQ"/>
         <ItemData ItemOID="CO.IDVARVAL" Value="1"/>
         <ItemData ItemOID="CO.COREF" IsNull="Yes"/>
         <ItemData ItemOID="CO.COVAL" Value="related to record 4,6 in domain AE"/>
         <ItemData ItemOID="CO.COEVAL" Value="PRINCIPAL INVESTIGATOR"/>
      </ItemGroupData>
      <ItemGroupData data:ItemGroupDataSeq="162" ItemGroupOID="CO">
         <ItemData ItemOID="CO.STUDYID" Value="CDISCPILOT01"/>
         <ItemData ItemOID="CO.DOMAIN" Value="CO"/>
         <ItemData ItemOID="CO.RDOMAIN" Value="DS"/>
         <ItemData ItemOID="CO.USUBJID" Value="01-704-1065"/>
         <ItemData ItemOID="CO.COSEQ" Value="162"/>
         <ItemData ItemOID="CO.IDVAR" Value="DSSEQ"/>
         <ItemData ItemOID="CO.IDVARVAL" Value="1"/>
         <ItemData ItemOID="CO.COREF" IsNull="Yes"/>
         <ItemData ItemOID="CO.COVAL" Value="related to record 4 in domain AE"/>
         <ItemData ItemOID="CO.COEVAL" Value="PRINCIPAL INVESTIGATOR"/>
      </ItemGroupData>
      <ItemGroupData data:ItemGroupDataSeq="163" ItemGroupOID="CO">
         <ItemData ItemOID="CO.STUDYID" Value="CDISCPILOT01"/>
         <ItemData ItemOID="CO.DOMAIN" Value="CO"/>
         <ItemData ItemOID="CO.RDOMAIN" Value="DS"/>
         <ItemData ItemOID="CO.USUBJID" Value="01-704-1074"/>
         <ItemData ItemOID="CO.COSEQ" Value="163"/>
         <ItemData ItemOID="CO.IDVAR" Value="DSSEQ"/>
         <ItemData ItemOID="CO.IDVARVAL" Value="1"/>
         <ItemData ItemOID="CO.COREF" IsNull="Yes"/>
         <ItemData ItemOID="CO.COVAL" Value="related to record 2 in domain AE"/>
         <ItemData ItemOID="CO.COEVAL" Value="PRINCIPAL INVESTIGATOR"/>
      </ItemGroupData>
      <ItemGroupData data:ItemGroupDataSeq="164" ItemGroupOID="CO">
         <ItemData ItemOID="CO.STUDYID" Value="CDISCPILOT01"/>
         <ItemData ItemOID="CO.DOMAIN" Value="CO"/>
         <ItemData ItemOID="CO.RDOMAIN" Value="DS"/>
         <ItemData ItemOID="CO.USUBJID" Value="01-704-1093"/>
         <ItemData ItemOID="CO.COSEQ" Value="164"/>
         <ItemData ItemOID="CO.IDVAR" Value="DSSEQ"/>
         <ItemData ItemOID="CO.IDVARVAL" Value="1"/>
         <ItemData ItemOID="CO.COREF" IsNull="Yes"/>
         <ItemData ItemOID="CO.COVAL" Value="related to record 3 in domain AE"/>
         <ItemData ItemOID="CO.COEVAL" Value="PRINCIPAL INVESTIGATOR"/>
      </ItemGroupData>
      <ItemGroupData data:ItemGroupDataSeq="165" ItemGroupOID="CO">
         <ItemData ItemOID="CO.STUDYID" Value="CDISCPILOT01"/>
         <ItemData ItemOID="CO.DOMAIN" Value="CO"/>
         <ItemData ItemOID="CO.RDOMAIN" Value="DS"/>
         <ItemData ItemOID="CO.USUBJID" Value="01-704-1120"/>
         <ItemData ItemOID="CO.COSEQ" Value="165"/>
         <ItemData ItemOID="CO.IDVAR" Value="DSSEQ"/>
         <ItemData ItemOID="CO.IDVARVAL" Value="1"/>
         <ItemData ItemOID="CO.COREF" IsNull="Yes"/>
         <ItemData ItemOID="CO.COVAL" Value="related to record 1,3 in domain AE"/>
         <ItemData ItemOID="CO.COEVAL" Value="PRINCIPAL INVESTIGATOR"/>
      </ItemGroupData>
      <ItemGroupData data:ItemGroupDataSeq="166" ItemGroupOID="CO">
         <ItemData ItemOID="CO.STUDYID" Value="CDISCPILOT01"/>
         <ItemData ItemOID="CO.DOMAIN" Value="CO"/>
         <ItemData ItemOID="CO.RDOMAIN" Value="DS"/>
         <ItemData ItemOID="CO.USUBJID" Value="01-704-1241"/>
         <ItemData ItemOID="CO.COSEQ" Value="166"/>
         <ItemData ItemOID="CO.IDVAR" Value="DSSEQ"/>
         <ItemData ItemOID="CO.IDVARVAL" Value="1"/>
         <ItemData ItemOID="CO.COREF" IsNull="Yes"/>
         <ItemData ItemOID="CO.COVAL" Value="related to record 1 in domain AE"/>
         <ItemData ItemOID="CO.COEVAL" Value="PRINCIPAL INVESTIGATOR"/>
      </ItemGroupData>
      <ItemGroupData data:ItemGroupDataSeq="167" ItemGroupOID="CO">
         <ItemData ItemOID="CO.STUDYID" Value="CDISCPILOT01"/>
         <ItemData ItemOID="CO.DOMAIN" Value="CO"/>
         <ItemData ItemOID="CO.RDOMAIN" Value="DS"/>
         <ItemData ItemOID="CO.USUBJID" Value="01-704-1266"/>
         <ItemData ItemOID="CO.COSEQ" Value="167"/>
         <ItemData ItemOID="CO.IDVAR" Value="DSSEQ"/>
         <ItemData ItemOID="CO.IDVARVAL" Value="1"/>
         <ItemData ItemOID="CO.COREF" IsNull="Yes"/>
         <ItemData ItemOID="CO.COVAL" Value="related to record 2,9,12 in domain AE"/>
         <ItemData ItemOID="CO.COEVAL" Value="PRINCIPAL INVESTIGATOR"/>
      </ItemGroupData>
      <ItemGroupData data:ItemGroupDataSeq="168" ItemGroupOID="CO">
         <ItemData ItemOID="CO.STUDYID" Value="CDISCPILOT01"/>
         <ItemData ItemOID="CO.DOMAIN" Value="CO"/>
         <ItemData ItemOID="CO.RDOMAIN" Value="DS"/>
         <ItemData ItemOID="CO.USUBJID" Value="01-704-1323"/>
         <ItemData ItemOID="CO.COSEQ" Value="168"/>
         <ItemData ItemOID="CO.IDVAR" Value="DSSEQ"/>
         <ItemData ItemOID="CO.IDVARVAL" Value="1"/>
         <ItemData ItemOID="CO.COREF" IsNull="Yes"/>
         <ItemData ItemOID="CO.COVAL" Value="related to record 2 in domain AE"/>
         <ItemData ItemOID="CO.COEVAL" Value="PRINCIPAL INVESTIGATOR"/>
      </ItemGroupData>
      <ItemGroupData data:ItemGroupDataSeq="169" ItemGroupOID="CO">
         <ItemData ItemOID="CO.STUDYID" Value="CDISCPILOT01"/>
         <ItemData ItemOID="CO.DOMAIN" Value="CO"/>
         <ItemData ItemOID="CO.RDOMAIN" Value="DS"/>
         <ItemData ItemOID="CO.USUBJID" Value="01-704-1332"/>
         <ItemData ItemOID="CO.COSEQ" Value="169"/>
         <ItemData ItemOID="CO.IDVAR" Value="DSSEQ"/>
         <ItemData ItemOID="CO.IDVARVAL" Value="1"/>
         <ItemData ItemOID="CO.COREF" IsNull="Yes"/>
         <ItemData ItemOID="CO.COVAL" Value="related to record 1,3,5 in domain AE"/>
         <ItemData ItemOID="CO.COEVAL" Value="PRINCIPAL INVESTIGATOR"/>
      </ItemGroupData>
      <ItemGroupData data:ItemGroupDataSeq="170" ItemGroupOID="CO">
         <ItemData ItemOID="CO.STUDYID" Value="CDISCPILOT01"/>
         <ItemData ItemOID="CO.DOMAIN" Value="CO"/>
         <ItemData ItemOID="CO.RDOMAIN" Value="DS"/>
         <ItemData ItemOID="CO.USUBJID" Value="01-704-1445"/>
         <ItemData ItemOID="CO.COSEQ" Value="170"/>
         <ItemData ItemOID="CO.IDVAR" Value="DSSEQ"/>
         <ItemData ItemOID="CO.IDVARVAL" Value="1"/>
         <ItemData ItemOID="CO.COREF" IsNull="Yes"/>
         <ItemData ItemOID="CO.COVAL" Value="related to record 1 in domain AE"/>
         <ItemData ItemOID="CO.COEVAL" Value="PRINCIPAL INVESTIGATOR"/>
      </ItemGroupData>
      <ItemGroupData data:ItemGroupDataSeq="171" ItemGroupOID="CO">
         <ItemData ItemOID="CO.STUDYID" Value="CDISCPILOT01"/>
         <ItemData ItemOID="CO.DOMAIN" Value="CO"/>
         <ItemData ItemOID="CO.RDOMAIN" Value="DS"/>
         <ItemData ItemOID="CO.USUBJID" Value="01-705-1059"/>
         <ItemData ItemOID="CO.COSEQ" Value="171"/>
         <ItemData ItemOID="CO.IDVAR" Value="DSSEQ"/>
         <ItemData ItemOID="CO.IDVARVAL" Value="1"/>
         <ItemData ItemOID="CO.COREF" IsNull="Yes"/>
         <ItemData ItemOID="CO.COVAL" Value="related to record 1 in domain AE"/>
         <ItemData ItemOID="CO.COEVAL" Value="PRINCIPAL INVESTIGATOR"/>
      </ItemGroupData>
      <ItemGroupData data:ItemGroupDataSeq="172" ItemGroupOID="CO">
         <ItemData ItemOID="CO.STUDYID" Value="CDISCPILOT01"/>
         <ItemData ItemOID="CO.DOMAIN" Value="CO"/>
         <ItemData ItemOID="CO.RDOMAIN" Value="DS"/>
         <ItemData ItemOID="CO.USUBJID" Value="01-705-1199"/>
         <ItemData ItemOID="CO.COSEQ" Value="172"/>
         <ItemData ItemOID="CO.IDVAR" Value="DSSEQ"/>
         <ItemData ItemOID="CO.IDVARVAL" Value="1"/>
         <ItemData ItemOID="CO.COREF" IsNull="Yes"/>
         <ItemData ItemOID="CO.COVAL" Value="related to record 1,2 in domain AE"/>
         <ItemData ItemOID="CO.COEVAL" Value="PRINCIPAL INVESTIGATOR"/>
      </ItemGroupData>
      <ItemGroupData data:ItemGroupDataSeq="173" ItemGroupOID="CO">
         <ItemData ItemOID="CO.STUDYID" Value="CDISCPILOT01"/>
         <ItemData ItemOID="CO.DOMAIN" Value="CO"/>
         <ItemData ItemOID="CO.RDOMAIN" Value="DS"/>
         <ItemData ItemOID="CO.USUBJID" Value="01-705-1281"/>
         <ItemData ItemOID="CO.COSEQ" Value="173"/>
         <ItemData ItemOID="CO.IDVAR" Value="DSSEQ"/>
         <ItemData ItemOID="CO.IDVARVAL" Value="1"/>
         <ItemData ItemOID="CO.COREF" IsNull="Yes"/>
         <ItemData ItemOID="CO.COVAL" Value="related to record 1,3 in domain AE"/>
         <ItemData ItemOID="CO.COEVAL" Value="PRINCIPAL INVESTIGATOR"/>
      </ItemGroupData>
      <ItemGroupData data:ItemGroupDataSeq="174" ItemGroupOID="CO">
         <ItemData ItemOID="CO.STUDYID" Value="CDISCPILOT01"/>
         <ItemData ItemOID="CO.DOMAIN" Value="CO"/>
         <ItemData ItemOID="CO.RDOMAIN" Value="DS"/>
         <ItemData ItemOID="CO.USUBJID" Value="01-705-1303"/>
         <ItemData ItemOID="CO.COSEQ" Value="174"/>
         <ItemData ItemOID="CO.IDVAR" Value="DSSEQ"/>
         <ItemData ItemOID="CO.IDVARVAL" Value="1"/>
         <ItemData ItemOID="CO.COREF" IsNull="Yes"/>
         <ItemData ItemOID="CO.COVAL" Value="related to record 2,4 in domain AE"/>
         <ItemData ItemOID="CO.COEVAL" Value="PRINCIPAL INVESTIGATOR"/>
      </ItemGroupData>
      <ItemGroupData data:ItemGroupDataSeq="175" ItemGroupOID="CO">
         <ItemData ItemOID="CO.STUDYID" Value="CDISCPILOT01"/>
         <ItemData ItemOID="CO.DOMAIN" Value="CO"/>
         <ItemData ItemOID="CO.RDOMAIN" Value="DS"/>
         <ItemData ItemOID="CO.USUBJID" Value="01-705-1310"/>
         <ItemData ItemOID="CO.COSEQ" Value="175"/>
         <ItemData ItemOID="CO.IDVAR" Value="DSSEQ"/>
         <ItemData ItemOID="CO.IDVARVAL" Value="1"/>
         <ItemData ItemOID="CO.COREF" IsNull="Yes"/>
         <ItemData ItemOID="CO.COVAL" Value="related to record 2 in domain AE"/>
         <ItemData ItemOID="CO.COEVAL" Value="PRINCIPAL INVESTIGATOR"/>
      </ItemGroupData>
      <ItemGroupData data:ItemGroupDataSeq="176" ItemGroupOID="CO">
         <ItemData ItemOID="CO.STUDYID" Value="CDISCPILOT01"/>
         <ItemData ItemOID="CO.DOMAIN" Value="CO"/>
         <ItemData ItemOID="CO.RDOMAIN" Value="DS"/>
         <ItemData ItemOID="CO.USUBJID" Value="01-705-1393"/>
         <ItemData ItemOID="CO.COSEQ" Value="176"/>
         <ItemData ItemOID="CO.IDVAR" Value="DSSEQ"/>
         <ItemData ItemOID="CO.IDVARVAL" Value="1"/>
         <ItemData ItemOID="CO.COREF" IsNull="Yes"/>
         <ItemData ItemOID="CO.COVAL" Value="related to record 3 in domain AE"/>
         <ItemData ItemOID="CO.COEVAL" Value="PRINCIPAL INVESTIGATOR"/>
      </ItemGroupData>
      <ItemGroupData data:ItemGroupDataSeq="177" ItemGroupOID="CO">
         <ItemData ItemOID="CO.STUDYID" Value="CDISCPILOT01"/>
         <ItemData ItemOID="CO.DOMAIN" Value="CO"/>
         <ItemData ItemOID="CO.RDOMAIN" Value="DS"/>
         <ItemData ItemOID="CO.USUBJID" Value="01-706-1049"/>
         <ItemData ItemOID="CO.COSEQ" Value="177"/>
         <ItemData ItemOID="CO.IDVAR" Value="DSSEQ"/>
         <ItemData ItemOID="CO.IDVARVAL" Value="1"/>
         <ItemData ItemOID="CO.COREF" IsNull="Yes"/>
         <ItemData ItemOID="CO.COVAL" Value="related to record 2 in domain AE"/>
         <ItemData ItemOID="CO.COEVAL" Value="PRINCIPAL INVESTIGATOR"/>
      </ItemGroupData>
      <ItemGroupData data:ItemGroupDataSeq="178" ItemGroupOID="CO">
         <ItemData ItemOID="CO.STUDYID" Value="CDISCPILOT01"/>
         <ItemData ItemOID="CO.DOMAIN" Value="CO"/>
         <ItemData ItemOID="CO.RDOMAIN" Value="DS"/>
         <ItemData ItemOID="CO.USUBJID" Value="01-706-1384"/>
         <ItemData ItemOID="CO.COSEQ" Value="178"/>
         <ItemData ItemOID="CO.IDVAR" Value="DSSEQ"/>
         <ItemData ItemOID="CO.IDVARVAL" Value="1"/>
         <ItemData ItemOID="CO.COREF" IsNull="Yes"/>
         <ItemData ItemOID="CO.COVAL" Value="related to record 4,9 in domain AE"/>
         <ItemData ItemOID="CO.COEVAL" Value="PRINCIPAL INVESTIGATOR"/>
      </ItemGroupData>
      <ItemGroupData data:ItemGroupDataSeq="179" ItemGroupOID="CO">
         <ItemData ItemOID="CO.STUDYID" Value="CDISCPILOT01"/>
         <ItemData ItemOID="CO.DOMAIN" Value="CO"/>
         <ItemData ItemOID="CO.RDOMAIN" Value="DS"/>
         <ItemData ItemOID="CO.USUBJID" Value="01-708-1019"/>
         <ItemData ItemOID="CO.COSEQ" Value="179"/>
         <ItemData ItemOID="CO.IDVAR" Value="DSSEQ"/>
         <ItemData ItemOID="CO.IDVARVAL" Value="1"/>
         <ItemData ItemOID="CO.COREF" IsNull="Yes"/>
         <ItemData ItemOID="CO.COVAL" Value="related to record 2 in domain AE"/>
         <ItemData ItemOID="CO.COEVAL" Value="PRINCIPAL INVESTIGATOR"/>
      </ItemGroupData>
      <ItemGroupData data:ItemGroupDataSeq="180" ItemGroupOID="CO">
         <ItemData ItemOID="CO.STUDYID" Value="CDISCPILOT01"/>
         <ItemData ItemOID="CO.DOMAIN" Value="CO"/>
         <ItemData ItemOID="CO.RDOMAIN" Value="DS"/>
         <ItemData ItemOID="CO.USUBJID" Value="01-708-1032"/>
         <ItemData ItemOID="CO.COSEQ" Value="180"/>
         <ItemData ItemOID="CO.IDVAR" Value="DSSEQ"/>
         <ItemData ItemOID="CO.IDVARVAL" Value="1"/>
         <ItemData ItemOID="CO.COREF" IsNull="Yes"/>
         <ItemData ItemOID="CO.COVAL" Value="related to record 1 in domain AE"/>
         <ItemData ItemOID="CO.COEVAL" Value="PRINCIPAL INVESTIGATOR"/>
      </ItemGroupData>
      <ItemGroupData data:ItemGroupDataSeq="181" ItemGroupOID="CO">
         <ItemData ItemOID="CO.STUDYID" Value="CDISCPILOT01"/>
         <ItemData ItemOID="CO.DOMAIN" Value="CO"/>
         <ItemData ItemOID="CO.RDOMAIN" Value="DS"/>
         <ItemData ItemOID="CO.USUBJID" Value="01-708-1158"/>
         <ItemData ItemOID="CO.COSEQ" Value="181"/>
         <ItemData ItemOID="CO.IDVAR" Value="DSSEQ"/>
         <ItemData ItemOID="CO.IDVARVAL" Value="1"/>
         <ItemData ItemOID="CO.COREF" IsNull="Yes"/>
         <ItemData ItemOID="CO.COVAL" Value="related to record 1 in domain AE"/>
         <ItemData ItemOID="CO.COEVAL" Value="PRINCIPAL INVESTIGATOR"/>
      </ItemGroupData>
      <ItemGroupData data:ItemGroupDataSeq="182" ItemGroupOID="CO">
         <ItemData ItemOID="CO.STUDYID" Value="CDISCPILOT01"/>
         <ItemData ItemOID="CO.DOMAIN" Value="CO"/>
         <ItemData ItemOID="CO.RDOMAIN" Value="DS"/>
         <ItemData ItemOID="CO.USUBJID" Value="01-708-1213"/>
         <ItemData ItemOID="CO.COSEQ" Value="182"/>
         <ItemData ItemOID="CO.IDVAR" Value="DSSEQ"/>
         <ItemData ItemOID="CO.IDVARVAL" Value="1"/>
         <ItemData ItemOID="CO.COREF" IsNull="Yes"/>
         <ItemData ItemOID="CO.COVAL" Value="related to record 1,2 in domain AE"/>
         <ItemData ItemOID="CO.COEVAL" Value="PRINCIPAL INVESTIGATOR"/>
      </ItemGroupData>
      <ItemGroupData data:ItemGroupDataSeq="183" ItemGroupOID="CO">
         <ItemData ItemOID="CO.STUDYID" Value="CDISCPILOT01"/>
         <ItemData ItemOID="CO.DOMAIN" Value="CO"/>
         <ItemData ItemOID="CO.RDOMAIN" Value="DS"/>
         <ItemData ItemOID="CO.USUBJID" Value="01-708-1216"/>
         <ItemData ItemOID="CO.COSEQ" Value="183"/>
         <ItemData ItemOID="CO.IDVAR" Value="DSSEQ"/>
         <ItemData ItemOID="CO.IDVARVAL" Value="1"/>
         <ItemData ItemOID="CO.COREF" IsNull="Yes"/>
         <ItemData ItemOID="CO.COVAL" Value="related to record 1 in domain AE"/>
         <ItemData ItemOID="CO.COEVAL" Value="PRINCIPAL INVESTIGATOR"/>
      </ItemGroupData>
      <ItemGroupData data:ItemGroupDataSeq="184" ItemGroupOID="CO">
         <ItemData ItemOID="CO.STUDYID" Value="CDISCPILOT01"/>
         <ItemData ItemOID="CO.DOMAIN" Value="CO"/>
         <ItemData ItemOID="CO.RDOMAIN" Value="DS"/>
         <ItemData ItemOID="CO.USUBJID" Value="01-708-1297"/>
         <ItemData ItemOID="CO.COSEQ" Value="184"/>
         <ItemData ItemOID="CO.IDVAR" Value="DSSEQ"/>
         <ItemData ItemOID="CO.IDVARVAL" Value="1"/>
         <ItemData ItemOID="CO.COREF" IsNull="Yes"/>
         <ItemData ItemOID="CO.COVAL" Value="related to record 1 in domain AE"/>
         <ItemData ItemOID="CO.COEVAL" Value="PRINCIPAL INVESTIGATOR"/>
      </ItemGroupData>
      <ItemGroupData data:ItemGroupDataSeq="185" ItemGroupOID="CO">
         <ItemData ItemOID="CO.STUDYID" Value="CDISCPILOT01"/>
         <ItemData ItemOID="CO.DOMAIN" Value="CO"/>
         <ItemData ItemOID="CO.RDOMAIN" Value="DS"/>
         <ItemData ItemOID="CO.USUBJID" Value="01-708-1347"/>
         <ItemData ItemOID="CO.COSEQ" Value="185"/>
         <ItemData ItemOID="CO.IDVAR" Value="DSSEQ"/>
         <ItemData ItemOID="CO.IDVARVAL" Value="1"/>
         <ItemData ItemOID="CO.COREF" IsNull="Yes"/>
         <ItemData ItemOID="CO.COVAL" Value="related to record 2,6 in domain AE"/>
         <ItemData ItemOID="CO.COEVAL" Value="PRINCIPAL INVESTIGATOR"/>
      </ItemGroupData>
      <ItemGroupData data:ItemGroupDataSeq="186" ItemGroupOID="CO">
         <ItemData ItemOID="CO.STUDYID" Value="CDISCPILOT01"/>
         <ItemData ItemOID="CO.DOMAIN" Value="CO"/>
         <ItemData ItemOID="CO.RDOMAIN" Value="DS"/>
         <ItemData ItemOID="CO.USUBJID" Value="01-708-1353"/>
         <ItemData ItemOID="CO.COSEQ" Value="186"/>
         <ItemData ItemOID="CO.IDVAR" Value="DSSEQ"/>
         <ItemData ItemOID="CO.IDVARVAL" Value="1"/>
         <ItemData ItemOID="CO.COREF" IsNull="Yes"/>
         <ItemData ItemOID="CO.COVAL" Value="related to record 3 in domain AE"/>
         <ItemData ItemOID="CO.COEVAL" Value="PRINCIPAL INVESTIGATOR"/>
      </ItemGroupData>
      <ItemGroupData data:ItemGroupDataSeq="187" ItemGroupOID="CO">
         <ItemData ItemOID="CO.STUDYID" Value="CDISCPILOT01"/>
         <ItemData ItemOID="CO.DOMAIN" Value="CO"/>
         <ItemData ItemOID="CO.RDOMAIN" Value="DS"/>
         <ItemData ItemOID="CO.USUBJID" Value="01-708-1428"/>
         <ItemData ItemOID="CO.COSEQ" Value="187"/>
         <ItemData ItemOID="CO.IDVAR" Value="DSSEQ"/>
         <ItemData ItemOID="CO.IDVARVAL" Value="1"/>
         <ItemData ItemOID="CO.COREF" IsNull="Yes"/>
         <ItemData ItemOID="CO.COVAL" Value="related to record 2,5 in domain AE"/>
         <ItemData ItemOID="CO.COEVAL" Value="PRINCIPAL INVESTIGATOR"/>
      </ItemGroupData>
      <ItemGroupData data:ItemGroupDataSeq="188" ItemGroupOID="CO">
         <ItemData ItemOID="CO.STUDYID" Value="CDISCPILOT01"/>
         <ItemData ItemOID="CO.DOMAIN" Value="CO"/>
         <ItemData ItemOID="CO.RDOMAIN" Value="DS"/>
         <ItemData ItemOID="CO.USUBJID" Value="01-709-1007"/>
         <ItemData ItemOID="CO.COSEQ" Value="188"/>
         <ItemData ItemOID="CO.IDVAR" Value="DSSEQ"/>
         <ItemData ItemOID="CO.IDVARVAL" Value="1"/>
         <ItemData ItemOID="CO.COREF" IsNull="Yes"/>
         <ItemData ItemOID="CO.COVAL" Value="related to record 3 in domain AE"/>
         <ItemData ItemOID="CO.COEVAL" Value="PRINCIPAL INVESTIGATOR"/>
      </ItemGroupData>
      <ItemGroupData data:ItemGroupDataSeq="189" ItemGroupOID="CO">
         <ItemData ItemOID="CO.STUDYID" Value="CDISCPILOT01"/>
         <ItemData ItemOID="CO.DOMAIN" Value="CO"/>
         <ItemData ItemOID="CO.RDOMAIN" Value="DS"/>
         <ItemData ItemOID="CO.USUBJID" Value="01-709-1081"/>
         <ItemData ItemOID="CO.COSEQ" Value="189"/>
         <ItemData ItemOID="CO.IDVAR" Value="DSSEQ"/>
         <ItemData ItemOID="CO.IDVARVAL" Value="1"/>
         <ItemData ItemOID="CO.COREF" IsNull="Yes"/>
         <ItemData ItemOID="CO.COVAL" Value="related to record 1 in domain AE"/>
         <ItemData ItemOID="CO.COEVAL" Value="PRINCIPAL INVESTIGATOR"/>
      </ItemGroupData>
      <ItemGroupData data:ItemGroupDataSeq="190" ItemGroupOID="CO">
         <ItemData ItemOID="CO.STUDYID" Value="CDISCPILOT01"/>
         <ItemData ItemOID="CO.DOMAIN" Value="CO"/>
         <ItemData ItemOID="CO.RDOMAIN" Value="DS"/>
         <ItemData ItemOID="CO.USUBJID" Value="01-709-1102"/>
         <ItemData ItemOID="CO.COSEQ" Value="190"/>
         <ItemData ItemOID="CO.IDVAR" Value="DSSEQ"/>
         <ItemData ItemOID="CO.IDVARVAL" Value="1"/>
         <ItemData ItemOID="CO.COREF" IsNull="Yes"/>
         <ItemData ItemOID="CO.COVAL" Value="related to record 1,3 in domain AE"/>
         <ItemData ItemOID="CO.COEVAL" Value="PRINCIPAL INVESTIGATOR"/>
      </ItemGroupData>
      <ItemGroupData data:ItemGroupDataSeq="191" ItemGroupOID="CO">
         <ItemData ItemOID="CO.STUDYID" Value="CDISCPILOT01"/>
         <ItemData ItemOID="CO.DOMAIN" Value="CO"/>
         <ItemData ItemOID="CO.RDOMAIN" Value="DS"/>
         <ItemData ItemOID="CO.USUBJID" Value="01-709-1168"/>
         <ItemData ItemOID="CO.COSEQ" Value="191"/>
         <ItemData ItemOID="CO.IDVAR" Value="DSSEQ"/>
         <ItemData ItemOID="CO.IDVARVAL" Value="1"/>
         <ItemData ItemOID="CO.COREF" IsNull="Yes"/>
         <ItemData ItemOID="CO.COVAL" Value="related to record 3,5 in domain AE"/>
         <ItemData ItemOID="CO.COEVAL" Value="PRINCIPAL INVESTIGATOR"/>
      </ItemGroupData>
      <ItemGroupData data:ItemGroupDataSeq="192" ItemGroupOID="CO">
         <ItemData ItemOID="CO.STUDYID" Value="CDISCPILOT01"/>
         <ItemData ItemOID="CO.DOMAIN" Value="CO"/>
         <ItemData ItemOID="CO.RDOMAIN" Value="DS"/>
         <ItemData ItemOID="CO.USUBJID" Value="01-709-1217"/>
         <ItemData ItemOID="CO.COSEQ" Value="192"/>
         <ItemData ItemOID="CO.IDVAR" Value="DSSEQ"/>
         <ItemData ItemOID="CO.IDVARVAL" Value="1"/>
         <ItemData ItemOID="CO.COREF" IsNull="Yes"/>
         <ItemData ItemOID="CO.COVAL" Value="related to record 11 in domain AE"/>
         <ItemData ItemOID="CO.COEVAL" Value="PRINCIPAL INVESTIGATOR"/>
      </ItemGroupData>
      <ItemGroupData data:ItemGroupDataSeq="193" ItemGroupOID="CO">
         <ItemData ItemOID="CO.STUDYID" Value="CDISCPILOT01"/>
         <ItemData ItemOID="CO.DOMAIN" Value="CO"/>
         <ItemData ItemOID="CO.RDOMAIN" Value="DS"/>
         <ItemData ItemOID="CO.USUBJID" Value="01-709-1238"/>
         <ItemData ItemOID="CO.COSEQ" Value="193"/>
         <ItemData ItemOID="CO.IDVAR" Value="DSSEQ"/>
         <ItemData ItemOID="CO.IDVARVAL" Value="1"/>
         <ItemData ItemOID="CO.COREF" IsNull="Yes"/>
         <ItemData ItemOID="CO.COVAL" Value="related to record 2 in domain AE"/>
         <ItemData ItemOID="CO.COEVAL" Value="PRINCIPAL INVESTIGATOR"/>
      </ItemGroupData>
      <ItemGroupData data:ItemGroupDataSeq="194" ItemGroupOID="CO">
         <ItemData ItemOID="CO.STUDYID" Value="CDISCPILOT01"/>
         <ItemData ItemOID="CO.DOMAIN" Value="CO"/>
         <ItemData ItemOID="CO.RDOMAIN" Value="DS"/>
         <ItemData ItemOID="CO.USUBJID" Value="01-709-1306"/>
         <ItemData ItemOID="CO.COSEQ" Value="194"/>
         <ItemData ItemOID="CO.IDVAR" Value="DSSEQ"/>
         <ItemData ItemOID="CO.IDVARVAL" Value="1"/>
         <ItemData ItemOID="CO.COREF" IsNull="Yes"/>
         <ItemData ItemOID="CO.COVAL" Value="related to record 5,9 in domain AE"/>
         <ItemData ItemOID="CO.COEVAL" Value="PRINCIPAL INVESTIGATOR"/>
      </ItemGroupData>
      <ItemGroupData data:ItemGroupDataSeq="195" ItemGroupOID="CO">
         <ItemData ItemOID="CO.STUDYID" Value="CDISCPILOT01"/>
         <ItemData ItemOID="CO.DOMAIN" Value="CO"/>
         <ItemData ItemOID="CO.RDOMAIN" Value="DS"/>
         <ItemData ItemOID="CO.USUBJID" Value="01-709-1424"/>
         <ItemData ItemOID="CO.COSEQ" Value="195"/>
         <ItemData ItemOID="CO.IDVAR" Value="DSSEQ"/>
         <ItemData ItemOID="CO.IDVARVAL" Value="1"/>
         <ItemData ItemOID="CO.COREF" IsNull="Yes"/>
         <ItemData ItemOID="CO.COVAL" Value="related to record 1 in domain AE"/>
         <ItemData ItemOID="CO.COEVAL" Value="PRINCIPAL INVESTIGATOR"/>
      </ItemGroupData>
      <ItemGroupData data:ItemGroupDataSeq="196" ItemGroupOID="CO">
         <ItemData ItemOID="CO.STUDYID" Value="CDISCPILOT01"/>
         <ItemData ItemOID="CO.DOMAIN" Value="CO"/>
         <ItemData ItemOID="CO.RDOMAIN" Value="DS"/>
         <ItemData ItemOID="CO.USUBJID" Value="01-710-1002"/>
         <ItemData ItemOID="CO.COSEQ" Value="196"/>
         <ItemData ItemOID="CO.IDVAR" Value="DSSEQ"/>
         <ItemData ItemOID="CO.IDVARVAL" Value="1"/>
         <ItemData ItemOID="CO.COREF" IsNull="Yes"/>
         <ItemData ItemOID="CO.COVAL" Value="related to record 1,2 in domain AE"/>
         <ItemData ItemOID="CO.COEVAL" Value="PRINCIPAL INVESTIGATOR"/>
      </ItemGroupData>
      <ItemGroupData data:ItemGroupDataSeq="197" ItemGroupOID="CO">
         <ItemData ItemOID="CO.STUDYID" Value="CDISCPILOT01"/>
         <ItemData ItemOID="CO.DOMAIN" Value="CO"/>
         <ItemData ItemOID="CO.RDOMAIN" Value="DS"/>
         <ItemData ItemOID="CO.USUBJID" Value="01-710-1021"/>
         <ItemData ItemOID="CO.COSEQ" Value="197"/>
         <ItemData ItemOID="CO.IDVAR" Value="DSSEQ"/>
         <ItemData ItemOID="CO.IDVARVAL" Value="1"/>
         <ItemData ItemOID="CO.COREF" IsNull="Yes"/>
         <ItemData ItemOID="CO.COVAL" Value="related to record 2,3 in domain AE"/>
         <ItemData ItemOID="CO.COEVAL" Value="PRINCIPAL INVESTIGATOR"/>
      </ItemGroupData>
      <ItemGroupData data:ItemGroupDataSeq="198" ItemGroupOID="CO">
         <ItemData ItemOID="CO.STUDYID" Value="CDISCPILOT01"/>
         <ItemData ItemOID="CO.DOMAIN" Value="CO"/>
         <ItemData ItemOID="CO.RDOMAIN" Value="DS"/>
         <ItemData ItemOID="CO.USUBJID" Value="01-710-1045"/>
         <ItemData ItemOID="CO.COSEQ" Value="198"/>
         <ItemData ItemOID="CO.IDVAR" Value="DSSEQ"/>
         <ItemData ItemOID="CO.IDVARVAL" Value="1"/>
         <ItemData ItemOID="CO.COREF" IsNull="Yes"/>
         <ItemData ItemOID="CO.COVAL" Value="related to record 3,9 in domain AE"/>
         <ItemData ItemOID="CO.COEVAL" Value="PRINCIPAL INVESTIGATOR"/>
      </ItemGroupData>
      <ItemGroupData data:ItemGroupDataSeq="199" ItemGroupOID="CO">
         <ItemData ItemOID="CO.STUDYID" Value="CDISCPILOT01"/>
         <ItemData ItemOID="CO.DOMAIN" Value="CO"/>
         <ItemData ItemOID="CO.RDOMAIN" Value="DS"/>
         <ItemData ItemOID="CO.USUBJID" Value="01-710-1053"/>
         <ItemData ItemOID="CO.COSEQ" Value="199"/>
         <ItemData ItemOID="CO.IDVAR" Value="DSSEQ"/>
         <ItemData ItemOID="CO.IDVARVAL" Value="1"/>
         <ItemData ItemOID="CO.COREF" IsNull="Yes"/>
         <ItemData ItemOID="CO.COVAL" Value="related to record 2,4 in domain AE"/>
         <ItemData ItemOID="CO.COEVAL" Value="PRINCIPAL INVESTIGATOR"/>
      </ItemGroupData>
      <ItemGroupData data:ItemGroupDataSeq="200" ItemGroupOID="CO">
         <ItemData ItemOID="CO.STUDYID" Value="CDISCPILOT01"/>
         <ItemData ItemOID="CO.DOMAIN" Value="CO"/>
         <ItemData ItemOID="CO.RDOMAIN" Value="DS"/>
         <ItemData ItemOID="CO.USUBJID" Value="01-710-1070"/>
         <ItemData ItemOID="CO.COSEQ" Value="200"/>
         <ItemData ItemOID="CO.IDVAR" Value="DSSEQ"/>
         <ItemData ItemOID="CO.IDVARVAL" Value="1"/>
         <ItemData ItemOID="CO.COREF" IsNull="Yes"/>
         <ItemData ItemOID="CO.COVAL" Value="related to record 5 in domain AE"/>
         <ItemData ItemOID="CO.COEVAL" Value="PRINCIPAL INVESTIGATOR"/>
      </ItemGroupData>
      <ItemGroupData data:ItemGroupDataSeq="201" ItemGroupOID="CO">
         <ItemData ItemOID="CO.STUDYID" Value="CDISCPILOT01"/>
         <ItemData ItemOID="CO.DOMAIN" Value="CO"/>
         <ItemData ItemOID="CO.RDOMAIN" Value="DS"/>
         <ItemData ItemOID="CO.USUBJID" Value="01-710-1083"/>
         <ItemData ItemOID="CO.COSEQ" Value="201"/>
         <ItemData ItemOID="CO.IDVAR" Value="DSSEQ"/>
         <ItemData ItemOID="CO.IDVARVAL" Value="1"/>
         <ItemData ItemOID="CO.COREF" IsNull="Yes"/>
         <ItemData ItemOID="CO.COVAL" Value="related to record 1 in domain AE"/>
         <ItemData ItemOID="CO.COEVAL" Value="PRINCIPAL INVESTIGATOR"/>
      </ItemGroupData>
      <ItemGroupData data:ItemGroupDataSeq="202" ItemGroupOID="CO">
         <ItemData ItemOID="CO.STUDYID" Value="CDISCPILOT01"/>
         <ItemData ItemOID="CO.DOMAIN" Value="CO"/>
         <ItemData ItemOID="CO.RDOMAIN" Value="DS"/>
         <ItemData ItemOID="CO.USUBJID" Value="01-710-1137"/>
         <ItemData ItemOID="CO.COSEQ" Value="202"/>
         <ItemData ItemOID="CO.IDVAR" Value="DSSEQ"/>
         <ItemData ItemOID="CO.IDVARVAL" Value="1"/>
         <ItemData ItemOID="CO.COREF" IsNull="Yes"/>
         <ItemData ItemOID="CO.COVAL" Value="related to record 3 in domain AE"/>
         <ItemData ItemOID="CO.COEVAL" Value="PRINCIPAL INVESTIGATOR"/>
      </ItemGroupData>
      <ItemGroupData data:ItemGroupDataSeq="203" ItemGroupOID="CO">
         <ItemData ItemOID="CO.STUDYID" Value="CDISCPILOT01"/>
         <ItemData ItemOID="CO.DOMAIN" Value="CO"/>
         <ItemData ItemOID="CO.RDOMAIN" Value="DS"/>
         <ItemData ItemOID="CO.USUBJID" Value="01-710-1142"/>
         <ItemData ItemOID="CO.COSEQ" Value="203"/>
         <ItemData ItemOID="CO.IDVAR" Value="DSSEQ"/>
         <ItemData ItemOID="CO.IDVARVAL" Value="1"/>
         <ItemData ItemOID="CO.COREF" IsNull="Yes"/>
         <ItemData ItemOID="CO.COVAL" Value="related to record 4 in domain AE"/>
         <ItemData ItemOID="CO.COEVAL" Value="PRINCIPAL INVESTIGATOR"/>
      </ItemGroupData>
      <ItemGroupData data:ItemGroupDataSeq="204" ItemGroupOID="CO">
         <ItemData ItemOID="CO.STUDYID" Value="CDISCPILOT01"/>
         <ItemData ItemOID="CO.DOMAIN" Value="CO"/>
         <ItemData ItemOID="CO.RDOMAIN" Value="DS"/>
         <ItemData ItemOID="CO.USUBJID" Value="01-710-1154"/>
         <ItemData ItemOID="CO.COSEQ" Value="204"/>
         <ItemData ItemOID="CO.IDVAR" Value="DSSEQ"/>
         <ItemData ItemOID="CO.IDVARVAL" Value="1"/>
         <ItemData ItemOID="CO.COREF" IsNull="Yes"/>
         <ItemData ItemOID="CO.COVAL" Value="related to record 1,2 in domain AE"/>
         <ItemData ItemOID="CO.COEVAL" Value="PRINCIPAL INVESTIGATOR"/>
      </ItemGroupData>
      <ItemGroupData data:ItemGroupDataSeq="205" ItemGroupOID="CO">
         <ItemData ItemOID="CO.STUDYID" Value="CDISCPILOT01"/>
         <ItemData ItemOID="CO.DOMAIN" Value="CO"/>
         <ItemData ItemOID="CO.RDOMAIN" Value="DS"/>
         <ItemData ItemOID="CO.USUBJID" Value="01-710-1166"/>
         <ItemData ItemOID="CO.COSEQ" Value="205"/>
         <ItemData ItemOID="CO.IDVAR" Value="DSSEQ"/>
         <ItemData ItemOID="CO.IDVARVAL" Value="1"/>
         <ItemData ItemOID="CO.COREF" IsNull="Yes"/>
         <ItemData ItemOID="CO.COVAL" Value="related to record 5 in domain AE"/>
         <ItemData ItemOID="CO.COEVAL" Value="PRINCIPAL INVESTIGATOR"/>
      </ItemGroupData>
      <ItemGroupData data:ItemGroupDataSeq="206" ItemGroupOID="CO">
         <ItemData ItemOID="CO.STUDYID" Value="CDISCPILOT01"/>
         <ItemData ItemOID="CO.DOMAIN" Value="CO"/>
         <ItemData ItemOID="CO.RDOMAIN" Value="DS"/>
         <ItemData ItemOID="CO.USUBJID" Value="01-710-1264"/>
         <ItemData ItemOID="CO.COSEQ" Value="206"/>
         <ItemData ItemOID="CO.IDVAR" Value="DSSEQ"/>
         <ItemData ItemOID="CO.IDVARVAL" Value="1"/>
         <ItemData ItemOID="CO.COREF" IsNull="Yes"/>
         <ItemData ItemOID="CO.COVAL" Value="related to record 4 in domain AE"/>
         <ItemData ItemOID="CO.COEVAL" Value="PRINCIPAL INVESTIGATOR"/>
      </ItemGroupData>
      <ItemGroupData data:ItemGroupDataSeq="207" ItemGroupOID="CO">
         <ItemData ItemOID="CO.STUDYID" Value="CDISCPILOT01"/>
         <ItemData ItemOID="CO.DOMAIN" Value="CO"/>
         <ItemData ItemOID="CO.RDOMAIN" Value="DS"/>
         <ItemData ItemOID="CO.USUBJID" Value="01-710-1270"/>
         <ItemData ItemOID="CO.COSEQ" Value="207"/>
         <ItemData ItemOID="CO.IDVAR" Value="DSSEQ"/>
         <ItemData ItemOID="CO.IDVARVAL" Value="1"/>
         <ItemData ItemOID="CO.COREF" IsNull="Yes"/>
         <ItemData ItemOID="CO.COVAL" Value="related to record 2 in domain AE"/>
         <ItemData ItemOID="CO.COEVAL" Value="PRINCIPAL INVESTIGATOR"/>
      </ItemGroupData>
      <ItemGroupData data:ItemGroupDataSeq="208" ItemGroupOID="CO">
         <ItemData ItemOID="CO.STUDYID" Value="CDISCPILOT01"/>
         <ItemData ItemOID="CO.DOMAIN" Value="CO"/>
         <ItemData ItemOID="CO.RDOMAIN" Value="DS"/>
         <ItemData ItemOID="CO.USUBJID" Value="01-710-1271"/>
         <ItemData ItemOID="CO.COSEQ" Value="208"/>
         <ItemData ItemOID="CO.IDVAR" Value="DSSEQ"/>
         <ItemData ItemOID="CO.IDVARVAL" Value="1"/>
         <ItemData ItemOID="CO.COREF" IsNull="Yes"/>
         <ItemData ItemOID="CO.COVAL" Value="related to record 2 in domain AE"/>
         <ItemData ItemOID="CO.COEVAL" Value="PRINCIPAL INVESTIGATOR"/>
      </ItemGroupData>
      <ItemGroupData data:ItemGroupDataSeq="209" ItemGroupOID="CO">
         <ItemData ItemOID="CO.STUDYID" Value="CDISCPILOT01"/>
         <ItemData ItemOID="CO.DOMAIN" Value="CO"/>
         <ItemData ItemOID="CO.RDOMAIN" Value="DS"/>
         <ItemData ItemOID="CO.USUBJID" Value="01-710-1278"/>
         <ItemData ItemOID="CO.COSEQ" Value="209"/>
         <ItemData ItemOID="CO.IDVAR" Value="DSSEQ"/>
         <ItemData ItemOID="CO.IDVARVAL" Value="1"/>
         <ItemData ItemOID="CO.COREF" IsNull="Yes"/>
         <ItemData ItemOID="CO.COVAL" Value="related to record 2,6 in domain AE"/>
         <ItemData ItemOID="CO.COEVAL" Value="PRINCIPAL INVESTIGATOR"/>
      </ItemGroupData>
      <ItemGroupData data:ItemGroupDataSeq="210" ItemGroupOID="CO">
         <ItemData ItemOID="CO.STUDYID" Value="CDISCPILOT01"/>
         <ItemData ItemOID="CO.DOMAIN" Value="CO"/>
         <ItemData ItemOID="CO.RDOMAIN" Value="DS"/>
         <ItemData ItemOID="CO.USUBJID" Value="01-710-1300"/>
         <ItemData ItemOID="CO.COSEQ" Value="210"/>
         <ItemData ItemOID="CO.IDVAR" Value="DSSEQ"/>
         <ItemData ItemOID="CO.IDVARVAL" Value="1"/>
         <ItemData ItemOID="CO.COREF" IsNull="Yes"/>
         <ItemData ItemOID="CO.COVAL" Value="related to record 3 in domain AE"/>
         <ItemData ItemOID="CO.COEVAL" Value="PRINCIPAL INVESTIGATOR"/>
      </ItemGroupData>
      <ItemGroupData data:ItemGroupDataSeq="211" ItemGroupOID="CO">
         <ItemData ItemOID="CO.STUDYID" Value="CDISCPILOT01"/>
         <ItemData ItemOID="CO.DOMAIN" Value="CO"/>
         <ItemData ItemOID="CO.RDOMAIN" Value="DS"/>
         <ItemData ItemOID="CO.USUBJID" Value="01-710-1315"/>
         <ItemData ItemOID="CO.COSEQ" Value="211"/>
         <ItemData ItemOID="CO.IDVAR" Value="DSSEQ"/>
         <ItemData ItemOID="CO.IDVARVAL" Value="1"/>
         <ItemData ItemOID="CO.COREF" IsNull="Yes"/>
         <ItemData ItemOID="CO.COVAL" Value="related to record 2,5 in domain AE"/>
         <ItemData ItemOID="CO.COEVAL" Value="PRINCIPAL INVESTIGATOR"/>
      </ItemGroupData>
      <ItemGroupData data:ItemGroupDataSeq="212" ItemGroupOID="CO">
         <ItemData ItemOID="CO.STUDYID" Value="CDISCPILOT01"/>
         <ItemData ItemOID="CO.DOMAIN" Value="CO"/>
         <ItemData ItemOID="CO.RDOMAIN" Value="DS"/>
         <ItemData ItemOID="CO.USUBJID" Value="01-710-1385"/>
         <ItemData ItemOID="CO.COSEQ" Value="212"/>
         <ItemData ItemOID="CO.IDVAR" Value="DSSEQ"/>
         <ItemData ItemOID="CO.IDVARVAL" Value="1"/>
         <ItemData ItemOID="CO.COREF" IsNull="Yes"/>
         <ItemData ItemOID="CO.COVAL" Value="related to record 7 in domain AE"/>
         <ItemData ItemOID="CO.COEVAL" Value="PRINCIPAL INVESTIGATOR"/>
      </ItemGroupData>
      <ItemGroupData data:ItemGroupDataSeq="213" ItemGroupOID="CO">
         <ItemData ItemOID="CO.STUDYID" Value="CDISCPILOT01"/>
         <ItemData ItemOID="CO.DOMAIN" Value="CO"/>
         <ItemData ItemOID="CO.RDOMAIN" Value="DS"/>
         <ItemData ItemOID="CO.USUBJID" Value="01-711-1012"/>
         <ItemData ItemOID="CO.COSEQ" Value="213"/>
         <ItemData ItemOID="CO.IDVAR" Value="DSSEQ"/>
         <ItemData ItemOID="CO.IDVARVAL" Value="1"/>
         <ItemData ItemOID="CO.COREF" IsNull="Yes"/>
         <ItemData ItemOID="CO.COVAL" Value="related to record 1,3 in domain AE"/>
         <ItemData ItemOID="CO.COEVAL" Value="PRINCIPAL INVESTIGATOR"/>
      </ItemGroupData>
      <ItemGroupData data:ItemGroupDataSeq="214" ItemGroupOID="CO">
         <ItemData ItemOID="CO.STUDYID" Value="CDISCPILOT01"/>
         <ItemData ItemOID="CO.DOMAIN" Value="CO"/>
         <ItemData ItemOID="CO.RDOMAIN" Value="DS"/>
         <ItemData ItemOID="CO.USUBJID" Value="01-711-1143"/>
         <ItemData ItemOID="CO.COSEQ" Value="214"/>
         <ItemData ItemOID="CO.IDVAR" Value="DSSEQ"/>
         <ItemData ItemOID="CO.IDVARVAL" Value="1"/>
         <ItemData ItemOID="CO.COREF" IsNull="Yes"/>
         <ItemData ItemOID="CO.COVAL" Value="related to record 10,14 in domain AE"/>
         <ItemData ItemOID="CO.COEVAL" Value="PRINCIPAL INVESTIGATOR"/>
      </ItemGroupData>
      <ItemGroupData data:ItemGroupDataSeq="215" ItemGroupOID="CO">
         <ItemData ItemOID="CO.STUDYID" Value="CDISCPILOT01"/>
         <ItemData ItemOID="CO.DOMAIN" Value="CO"/>
         <ItemData ItemOID="CO.RDOMAIN" Value="DS"/>
         <ItemData ItemOID="CO.USUBJID" Value="01-711-1433"/>
         <ItemData ItemOID="CO.COSEQ" Value="215"/>
         <ItemData ItemOID="CO.IDVAR" Value="DSSEQ"/>
         <ItemData ItemOID="CO.IDVARVAL" Value="1"/>
         <ItemData ItemOID="CO.COREF" IsNull="Yes"/>
         <ItemData ItemOID="CO.COVAL" Value="related to record 3 in domain AE"/>
         <ItemData ItemOID="CO.COEVAL" Value="PRINCIPAL INVESTIGATOR"/>
      </ItemGroupData>
      <ItemGroupData data:ItemGroupDataSeq="216" ItemGroupOID="CO">
         <ItemData ItemOID="CO.STUDYID" Value="CDISCPILOT01"/>
         <ItemData ItemOID="CO.DOMAIN" Value="CO"/>
         <ItemData ItemOID="CO.RDOMAIN" Value="DS"/>
         <ItemData ItemOID="CO.USUBJID" Value="01-713-1141"/>
         <ItemData ItemOID="CO.COSEQ" Value="216"/>
         <ItemData ItemOID="CO.IDVAR" Value="DSSEQ"/>
         <ItemData ItemOID="CO.IDVARVAL" Value="1"/>
         <ItemData ItemOID="CO.COREF" IsNull="Yes"/>
         <ItemData ItemOID="CO.COVAL" Value="related to record 4 in domain AE"/>
         <ItemData ItemOID="CO.COEVAL" Value="PRINCIPAL INVESTIGATOR"/>
      </ItemGroupData>
      <ItemGroupData data:ItemGroupDataSeq="217" ItemGroupOID="CO">
         <ItemData ItemOID="CO.STUDYID" Value="CDISCPILOT01"/>
         <ItemData ItemOID="CO.DOMAIN" Value="CO"/>
         <ItemData ItemOID="CO.RDOMAIN" Value="DS"/>
         <ItemData ItemOID="CO.USUBJID" Value="01-713-1448"/>
         <ItemData ItemOID="CO.COSEQ" Value="217"/>
         <ItemData ItemOID="CO.IDVAR" Value="DSSEQ"/>
         <ItemData ItemOID="CO.IDVARVAL" Value="1"/>
         <ItemData ItemOID="CO.COREF" IsNull="Yes"/>
         <ItemData ItemOID="CO.COVAL" Value="related to record 1,3 in domain AE"/>
         <ItemData ItemOID="CO.COEVAL" Value="PRINCIPAL INVESTIGATOR"/>
      </ItemGroupData>
      <ItemGroupData data:ItemGroupDataSeq="218" ItemGroupOID="CO">
         <ItemData ItemOID="CO.STUDYID" Value="CDISCPILOT01"/>
         <ItemData ItemOID="CO.DOMAIN" Value="CO"/>
         <ItemData ItemOID="CO.RDOMAIN" Value="DS"/>
         <ItemData ItemOID="CO.USUBJID" Value="01-714-1068"/>
         <ItemData ItemOID="CO.COSEQ" Value="218"/>
         <ItemData ItemOID="CO.IDVAR" Value="DSSEQ"/>
         <ItemData ItemOID="CO.IDVARVAL" Value="1"/>
         <ItemData ItemOID="CO.COREF" IsNull="Yes"/>
         <ItemData ItemOID="CO.COVAL" Value="related to record 4,6 in domain AE"/>
         <ItemData ItemOID="CO.COEVAL" Value="PRINCIPAL INVESTIGATOR"/>
      </ItemGroupData>
      <ItemGroupData data:ItemGroupDataSeq="219" ItemGroupOID="CO">
         <ItemData ItemOID="CO.STUDYID" Value="CDISCPILOT01"/>
         <ItemData ItemOID="CO.DOMAIN" Value="CO"/>
         <ItemData ItemOID="CO.RDOMAIN" Value="DS"/>
         <ItemData ItemOID="CO.USUBJID" Value="01-715-1107"/>
         <ItemData ItemOID="CO.COSEQ" Value="219"/>
         <ItemData ItemOID="CO.IDVAR" Value="DSSEQ"/>
         <ItemData ItemOID="CO.IDVARVAL" Value="1"/>
         <ItemData ItemOID="CO.COREF" IsNull="Yes"/>
         <ItemData ItemOID="CO.COVAL" Value="related to record 1,3 in domain AE"/>
         <ItemData ItemOID="CO.COEVAL" Value="PRINCIPAL INVESTIGATOR"/>
      </ItemGroupData>
      <ItemGroupData data:ItemGroupDataSeq="220" ItemGroupOID="CO">
         <ItemData ItemOID="CO.STUDYID" Value="CDISCPILOT01"/>
         <ItemData ItemOID="CO.DOMAIN" Value="CO"/>
         <ItemData ItemOID="CO.RDOMAIN" Value="DS"/>
         <ItemData ItemOID="CO.USUBJID" Value="01-715-1321"/>
         <ItemData ItemOID="CO.COSEQ" Value="220"/>
         <ItemData ItemOID="CO.IDVAR" Value="DSSEQ"/>
         <ItemData ItemOID="CO.IDVARVAL" Value="1"/>
         <ItemData ItemOID="CO.COREF" IsNull="Yes"/>
         <ItemData ItemOID="CO.COVAL" Value="related to record 3 in domain AE"/>
         <ItemData ItemOID="CO.COEVAL" Value="PRINCIPAL INVESTIGATOR"/>
      </ItemGroupData>
      <ItemGroupData data:ItemGroupDataSeq="221" ItemGroupOID="CO">
         <ItemData ItemOID="CO.STUDYID" Value="CDISCPILOT01"/>
         <ItemData ItemOID="CO.DOMAIN" Value="CO"/>
         <ItemData ItemOID="CO.RDOMAIN" Value="DS"/>
         <ItemData ItemOID="CO.USUBJID" Value="01-715-1405"/>
         <ItemData ItemOID="CO.COSEQ" Value="221"/>
         <ItemData ItemOID="CO.IDVAR" Value="DSSEQ"/>
         <ItemData ItemOID="CO.IDVARVAL" Value="1"/>
         <ItemData ItemOID="CO.COREF" IsNull="Yes"/>
         <ItemData ItemOID="CO.COVAL" Value="related to record 1 in domain AE"/>
         <ItemData ItemOID="CO.COEVAL" Value="PRINCIPAL INVESTIGATOR"/>
      </ItemGroupData>
      <ItemGroupData data:ItemGroupDataSeq="222" ItemGroupOID="CO">
         <ItemData ItemOID="CO.STUDYID" Value="CDISCPILOT01"/>
         <ItemData ItemOID="CO.DOMAIN" Value="CO"/>
         <ItemData ItemOID="CO.RDOMAIN" Value="DS"/>
         <ItemData ItemOID="CO.USUBJID" Value="01-716-1063"/>
         <ItemData ItemOID="CO.COSEQ" Value="222"/>
         <ItemData ItemOID="CO.IDVAR" Value="DSSEQ"/>
         <ItemData ItemOID="CO.IDVARVAL" Value="1"/>
         <ItemData ItemOID="CO.COREF" IsNull="Yes"/>
         <ItemData ItemOID="CO.COVAL" Value="related to record 6 in domain AE"/>
         <ItemData ItemOID="CO.COEVAL" Value="PRINCIPAL INVESTIGATOR"/>
      </ItemGroupData>
      <ItemGroupData data:ItemGroupDataSeq="223" ItemGroupOID="CO">
         <ItemData ItemOID="CO.STUDYID" Value="CDISCPILOT01"/>
         <ItemData ItemOID="CO.DOMAIN" Value="CO"/>
         <ItemData ItemOID="CO.RDOMAIN" Value="DS"/>
         <ItemData ItemOID="CO.USUBJID" Value="01-716-1071"/>
         <ItemData ItemOID="CO.COSEQ" Value="223"/>
         <ItemData ItemOID="CO.IDVAR" Value="DSSEQ"/>
         <ItemData ItemOID="CO.IDVARVAL" Value="1"/>
         <ItemData ItemOID="CO.COREF" IsNull="Yes"/>
         <ItemData ItemOID="CO.COVAL" Value="related to record 3 in domain AE"/>
         <ItemData ItemOID="CO.COEVAL" Value="PRINCIPAL INVESTIGATOR"/>
      </ItemGroupData>
      <ItemGroupData data:ItemGroupDataSeq="224" ItemGroupOID="CO">
         <ItemData ItemOID="CO.STUDYID" Value="CDISCPILOT01"/>
         <ItemData ItemOID="CO.DOMAIN" Value="CO"/>
         <ItemData ItemOID="CO.RDOMAIN" Value="DS"/>
         <ItemData ItemOID="CO.USUBJID" Value="01-716-1094"/>
         <ItemData ItemOID="CO.COSEQ" Value="224"/>
         <ItemData ItemOID="CO.IDVAR" Value="DSSEQ"/>
         <ItemData ItemOID="CO.IDVARVAL" Value="1"/>
         <ItemData ItemOID="CO.COREF" IsNull="Yes"/>
         <ItemData ItemOID="CO.COVAL" Value="related to record 1 in domain AE"/>
         <ItemData ItemOID="CO.COEVAL" Value="PRINCIPAL INVESTIGATOR"/>
      </ItemGroupData>
      <ItemGroupData data:ItemGroupDataSeq="225" ItemGroupOID="CO">
         <ItemData ItemOID="CO.STUDYID" Value="CDISCPILOT01"/>
         <ItemData ItemOID="CO.DOMAIN" Value="CO"/>
         <ItemData ItemOID="CO.RDOMAIN" Value="DS"/>
         <ItemData ItemOID="CO.USUBJID" Value="01-716-1151"/>
         <ItemData ItemOID="CO.COSEQ" Value="225"/>
         <ItemData ItemOID="CO.IDVAR" Value="DSSEQ"/>
         <ItemData ItemOID="CO.IDVARVAL" Value="1"/>
         <ItemData ItemOID="CO.COREF" IsNull="Yes"/>
         <ItemData ItemOID="CO.COVAL" Value="related to record 2 in domain AE"/>
         <ItemData ItemOID="CO.COEVAL" Value="PRINCIPAL INVESTIGATOR"/>
      </ItemGroupData>
      <ItemGroupData data:ItemGroupDataSeq="226" ItemGroupOID="CO">
         <ItemData ItemOID="CO.STUDYID" Value="CDISCPILOT01"/>
         <ItemData ItemOID="CO.DOMAIN" Value="CO"/>
         <ItemData ItemOID="CO.RDOMAIN" Value="DS"/>
         <ItemData ItemOID="CO.USUBJID" Value="01-716-1189"/>
         <ItemData ItemOID="CO.COSEQ" Value="226"/>
         <ItemData ItemOID="CO.IDVAR" Value="DSSEQ"/>
         <ItemData ItemOID="CO.IDVARVAL" Value="1"/>
         <ItemData ItemOID="CO.COREF" IsNull="Yes"/>
         <ItemData ItemOID="CO.COVAL" Value="related to record 4 in domain AE"/>
         <ItemData ItemOID="CO.COEVAL" Value="PRINCIPAL INVESTIGATOR"/>
      </ItemGroupData>
      <ItemGroupData data:ItemGroupDataSeq="227" ItemGroupOID="CO">
         <ItemData ItemOID="CO.STUDYID" Value="CDISCPILOT01"/>
         <ItemData ItemOID="CO.DOMAIN" Value="CO"/>
         <ItemData ItemOID="CO.RDOMAIN" Value="DS"/>
         <ItemData ItemOID="CO.USUBJID" Value="01-716-1229"/>
         <ItemData ItemOID="CO.COSEQ" Value="227"/>
         <ItemData ItemOID="CO.IDVAR" Value="DSSEQ"/>
         <ItemData ItemOID="CO.IDVARVAL" Value="1"/>
         <ItemData ItemOID="CO.COREF" IsNull="Yes"/>
         <ItemData ItemOID="CO.COVAL" Value="related to record 1 in domain AE"/>
         <ItemData ItemOID="CO.COEVAL" Value="PRINCIPAL INVESTIGATOR"/>
      </ItemGroupData>
      <ItemGroupData data:ItemGroupDataSeq="228" ItemGroupOID="CO">
         <ItemData ItemOID="CO.STUDYID" Value="CDISCPILOT01"/>
         <ItemData ItemOID="CO.DOMAIN" Value="CO"/>
         <ItemData ItemOID="CO.RDOMAIN" Value="DS"/>
         <ItemData ItemOID="CO.USUBJID" Value="01-716-1298"/>
         <ItemData ItemOID="CO.COSEQ" Value="228"/>
         <ItemData ItemOID="CO.IDVAR" Value="DSSEQ"/>
         <ItemData ItemOID="CO.IDVARVAL" Value="1"/>
         <ItemData ItemOID="CO.COREF" IsNull="Yes"/>
         <ItemData ItemOID="CO.COVAL" Value="related to record 3,6 in domain AE"/>
         <ItemData ItemOID="CO.COEVAL" Value="PRINCIPAL INVESTIGATOR"/>
      </ItemGroupData>
      <ItemGroupData data:ItemGroupDataSeq="229" ItemGroupOID="CO">
         <ItemData ItemOID="CO.STUDYID" Value="CDISCPILOT01"/>
         <ItemData ItemOID="CO.DOMAIN" Value="CO"/>
         <ItemData ItemOID="CO.RDOMAIN" Value="DS"/>
         <ItemData ItemOID="CO.USUBJID" Value="01-716-1373"/>
         <ItemData ItemOID="CO.COSEQ" Value="229"/>
         <ItemData ItemOID="CO.IDVAR" Value="DSSEQ"/>
         <ItemData ItemOID="CO.IDVARVAL" Value="1"/>
         <ItemData ItemOID="CO.COREF" IsNull="Yes"/>
         <ItemData ItemOID="CO.COVAL" Value="related to record 2 in domain AE"/>
         <ItemData ItemOID="CO.COEVAL" Value="PRINCIPAL INVESTIGATOR"/>
      </ItemGroupData>
      <ItemGroupData data:ItemGroupDataSeq="230" ItemGroupOID="CO">
         <ItemData ItemOID="CO.STUDYID" Value="CDISCPILOT01"/>
         <ItemData ItemOID="CO.DOMAIN" Value="CO"/>
         <ItemData ItemOID="CO.RDOMAIN" Value="DS"/>
         <ItemData ItemOID="CO.USUBJID" Value="01-718-1066"/>
         <ItemData ItemOID="CO.COSEQ" Value="230"/>
         <ItemData ItemOID="CO.IDVAR" Value="DSSEQ"/>
         <ItemData ItemOID="CO.IDVARVAL" Value="1"/>
         <ItemData ItemOID="CO.COREF" IsNull="Yes"/>
         <ItemData ItemOID="CO.COVAL" Value="related to record 3 in domain AE"/>
         <ItemData ItemOID="CO.COEVAL" Value="PRINCIPAL INVESTIGATOR"/>
      </ItemGroupData>
      <ItemGroupData data:ItemGroupDataSeq="231" ItemGroupOID="CO">
         <ItemData ItemOID="CO.STUDYID" Value="CDISCPILOT01"/>
         <ItemData ItemOID="CO.DOMAIN" Value="CO"/>
         <ItemData ItemOID="CO.RDOMAIN" Value="DS"/>
         <ItemData ItemOID="CO.USUBJID" Value="01-718-1079"/>
         <ItemData ItemOID="CO.COSEQ" Value="231"/>
         <ItemData ItemOID="CO.IDVAR" Value="DSSEQ"/>
         <ItemData ItemOID="CO.IDVARVAL" Value="1"/>
         <ItemData ItemOID="CO.COREF" IsNull="Yes"/>
         <ItemData ItemOID="CO.COVAL" Value="related to record 2,3 in domain AE"/>
         <ItemData ItemOID="CO.COEVAL" Value="PRINCIPAL INVESTIGATOR"/>
      </ItemGroupData>
      <ItemGroupData data:ItemGroupDataSeq="232" ItemGroupOID="CO">
         <ItemData ItemOID="CO.STUDYID" Value="CDISCPILOT01"/>
         <ItemData ItemOID="CO.DOMAIN" Value="CO"/>
         <ItemData ItemOID="CO.RDOMAIN" Value="DS"/>
         <ItemData ItemOID="CO.USUBJID" Value="01-718-1170"/>
         <ItemData ItemOID="CO.COSEQ" Value="232"/>
         <ItemData ItemOID="CO.IDVAR" Value="DSSEQ"/>
         <ItemData ItemOID="CO.IDVARVAL" Value="1"/>
         <ItemData ItemOID="CO.COREF" IsNull="Yes"/>
         <ItemData ItemOID="CO.COVAL" Value="related to record 5 in domain AE"/>
         <ItemData ItemOID="CO.COEVAL" Value="PRINCIPAL INVESTIGATOR"/>
      </ItemGroupData>
      <ItemGroupData data:ItemGroupDataSeq="233" ItemGroupOID="CO">
         <ItemData ItemOID="CO.STUDYID" Value="CDISCPILOT01"/>
         <ItemData ItemOID="CO.DOMAIN" Value="CO"/>
         <ItemData ItemOID="CO.RDOMAIN" Value="DS"/>
         <ItemData ItemOID="CO.USUBJID" Value="01-718-1250"/>
         <ItemData ItemOID="CO.COSEQ" Value="233"/>
         <ItemData ItemOID="CO.IDVAR" Value="DSSEQ"/>
         <ItemData ItemOID="CO.IDVARVAL" Value="1"/>
         <ItemData ItemOID="CO.COREF" IsNull="Yes"/>
         <ItemData ItemOID="CO.COVAL" Value="related to record 9,10,11 in domain AE"/>
         <ItemData ItemOID="CO.COEVAL" Value="PRINCIPAL INVESTIGATOR"/>
      </ItemGroupData>
      <ItemGroupData data:ItemGroupDataSeq="234" ItemGroupOID="CO">
         <ItemData ItemOID="CO.STUDYID" Value="CDISCPILOT01"/>
         <ItemData ItemOID="CO.DOMAIN" Value="CO"/>
         <ItemData ItemOID="CO.RDOMAIN" Value="DS"/>
         <ItemData ItemOID="CO.USUBJID" Value="01-718-1371"/>
         <ItemData ItemOID="CO.COSEQ" Value="234"/>
         <ItemData ItemOID="CO.IDVAR" Value="DSSEQ"/>
         <ItemData ItemOID="CO.IDVARVAL" Value="1"/>
         <ItemData ItemOID="CO.COREF" IsNull="Yes"/>
         <ItemData ItemOID="CO.COVAL" Value="related to record 3,6 in domain AE"/>
         <ItemData ItemOID="CO.COEVAL" Value="PRINCIPAL INVESTIGATOR"/>
      </ItemGroupData>
      <ItemGroupData data:ItemGroupDataSeq="235" ItemGroupOID="CO">
         <ItemData ItemOID="CO.STUDYID" Value="CDISCPILOT01"/>
         <ItemData ItemOID="CO.DOMAIN" Value="CO"/>
         <ItemData ItemOID="CO.RDOMAIN" Value="CM"/>
         <ItemData ItemOID="CO.USUBJID" Value="01-701-1028"/>
         <ItemData ItemOID="CO.COSEQ" Value="235"/>
         <ItemData ItemOID="CO.IDVAR" Value="CMSPID"/>
         <ItemData ItemOID="CO.IDVARVAL" Value="2"/>
         <ItemData ItemOID="CO.COVAL" Value="related to CMSPID=2 for Subject 01-701-1015"/>
         <ItemData ItemOID="CO.COEVAL" Value="PRINCIPAL INVESTIGATOR"/>
      </ItemGroupData>
      <ItemGroupData data:ItemGroupDataSeq="236" ItemGroupOID="CO">
         <ItemData ItemOID="CO.STUDYID" Value="CDISCPILOT01"/>
         <ItemData ItemOID="CO.DOMAIN" Value="CO"/>
         <ItemData ItemOID="CO.USUBJID" Value="01-701-1015"/>
         <ItemData ItemOID="CO.COSEQ" Value="236"/>
         <ItemData ItemOID="CO.COVAL" Value="Comment not related to any domain nor subject"/>
         <ItemData ItemOID="CO.COEVAL" Value="PRINCIPAL INVESTIGATOR"/>
      </ItemGroupData>
   </ClinicalData>
</ODM>