<?xml version="1.0" encoding="UTF-8"?>
<ODM xmlns:data="http://www.cdisc.org/ns/Dataset-XML/v1.0"
     xmlns="http://www.cdisc.org/ns/odm/v1.3"
     data:DatasetXMLVersion="1.0.0"
     ODMVersion="1.3.2"
     FileType="Snapshot"
     FileOID="SDTM-XML"
     CreationDateTime="2012-12-08T23:06:03.046+01:00">
   <ClinicalData StudyOID="LZZT" MetaDataVersionOID="CDISC.SDTM.3.1.0">
      <ItemGroupData data:ItemGroupDataSeq="1" ItemGroupOID="DM">
         <ItemData ItemOID="DM.STUDYID" Value="CDISCPILOT01"/>
         <ItemData ItemOID="DM.DOMAIN" Value="DM"/>
         <ItemData ItemOID="DM.USUBJID" Value="01-701-1015"/>
         <ItemData ItemOID="DM.SUBJID" Value="1015"/>
         <ItemData ItemOID="DM.RFSTDTC" Value="2014-01-02"/>
         <ItemData ItemOID="DM.RFENDTC" Value="2014-07-02"/>
         <ItemData ItemOID="DM.RFXSTDTC" Value="2014-01-02"/>
         <ItemData ItemOID="DM.RFXENDTC" Value="2014-07-02"/>
         <ItemData ItemOID="DM.RFPENDTC" Value="2014-07-02T11:45"/>
         <ItemData ItemOID="DM.SITEID" Value="701"/>
         <ItemData ItemOID="DM.AGE" Value="63"/>
         <ItemData ItemOID="DM.AGEU" Value="YEARS"/>
         <ItemData ItemOID="DM.SEX" Value="F"/>
         <ItemData ItemOID="DM.RACE" Value="WHITE"/>
         <ItemData ItemOID="DM.ETHNIC" Value="HISPANIC OR LATINO"/>
         <ItemData ItemOID="DM.ARMCD" Value="Pbo"/>
         <ItemData ItemOID="DM.ARM" Value="Placebo"/>
         <ItemData ItemOID="DM.ACTARMCD" Value="Pbo"/>
         <ItemData ItemOID="DM.ACTARM" Value="Placebo"/>
         <ItemData ItemOID="DM.COUNTRY" Value="USA"/>
         <ItemData ItemOID="DM.DMDTC" Value="2013-12-26"/>
         <ItemData ItemOID="DM.DMDY" Value="-7"/>
         <ItemData ItemOID="DM.COMPLT16" Value="Y"/>
         <ItemData ItemOID="DM.COMPLT24" Value="Y"/>
         <ItemData ItemOID="DM.COMPLT8" Value="Y"/>
         <ItemData ItemOID="DM.EFFICACY" Value="Y"/>
         <ItemData ItemOID="DM.ITT" Value="Y"/>
         <ItemData ItemOID="DM.SAFETY" Value="Y"/>
      </ItemGroupData>
      <ItemGroupData data:ItemGroupDataSeq="2" ItemGroupOID="DM">
         <ItemData ItemOID="DM.STUDYID" Value="CDISCPILOT01"/>
         <ItemData ItemOID="DM.DOMAIN" Value="DM"/>
         <ItemData ItemOID="DM.USUBJID" Value="01-701-1023"/>
         <ItemData ItemOID="DM.SUBJID" Value="1023"/>
         <ItemData ItemOID="DM.RFSTDTC" Value="2012-08-05"/>
         <ItemData ItemOID="DM.RFENDTC" Value="2012-09-02"/>
         <ItemData ItemOID="DM.RFXSTDTC" Value="2012-08-02"/>
         <ItemData ItemOID="DM.RFXENDTC" Value="2012-09-01"/>
         <ItemData ItemOID="DM.RFPENDTC" Value="2013-02-18"/>
         <ItemData ItemOID="DM.SITEID" Value="701"/>
         <ItemData ItemOID="DM.AGE" Value="64"/>
         <ItemData ItemOID="DM.AGEU" Value="YEARS"/>
         <ItemData ItemOID="DM.SEX" Value="M"/>
         <ItemData ItemOID="DM.RACE" Value="WHITE"/>
         <ItemData ItemOID="DM.ETHNIC" Value="HISPANIC OR LATINO"/>
         <ItemData ItemOID="DM.ARMCD" Value="Pbo"/>
         <ItemData ItemOID="DM.ARM" Value="Placebo"/>
         <ItemData ItemOID="DM.ACTARMCD" Value="Pbo"/>
         <ItemData ItemOID="DM.ACTARM" Value="Placebo"/>
         <ItemData ItemOID="DM.COUNTRY" Value="USA"/>
         <ItemData ItemOID="DM.DMDTC" Value="2012-07-22"/>
         <ItemData ItemOID="DM.DMDY" Value="-14"/>
         <ItemData ItemOID="DM.EFFICACY" Value="Y"/>
         <ItemData ItemOID="DM.ITT" Value="Y"/>
         <ItemData ItemOID="DM.SAFETY" Value="Y"/>
      </ItemGroupData>
      <ItemGroupData data:ItemGroupDataSeq="3" ItemGroupOID="DM">
         <ItemData ItemOID="DM.STUDYID" Value="CDISCPILOT01"/>
         <ItemData ItemOID="DM.DOMAIN" Value="DM"/>
         <ItemData ItemOID="DM.USUBJID" Value="01-701-1028"/>
         <ItemData ItemOID="DM.SUBJID" Value="1028"/>
         <ItemData ItemOID="DM.RFSTDTC" Value="2013-07-19"/>
         <ItemData ItemOID="DM.RFENDTC" Value="2014-01-14"/>
         <ItemData ItemOID="DM.RFXSTDTC" Value="2013-07-19"/>
         <ItemData ItemOID="DM.RFXENDTC" Value="2014-01-14"/>
         <ItemData ItemOID="DM.RFPENDTC" Value="2014-01-14T11:10"/>
         <ItemData ItemOID="DM.SITEID" Value="701"/>
         <ItemData ItemOID="DM.AGE" Value="71"/>
         <ItemData ItemOID="DM.AGEU" Value="YEARS"/>
         <ItemData ItemOID="DM.SEX" Value="M"/>
         <ItemData ItemOID="DM.RACE" Value="WHITE"/>
         <ItemData ItemOID="DM.ETHNIC" Value="NOT HISPANIC OR LATINO"/>
         <ItemData ItemOID="DM.ARMCD" Value="Xan_Hi"/>
         <ItemData ItemOID="DM.ARM" Value="Xanomeline High Dose"/>
         <ItemData ItemOID="DM.ACTARMCD" Value="Xan_Hi"/>
         <ItemData ItemOID="DM.ACTARM" Value="Xanomeline High Dose"/>
         <ItemData ItemOID="DM.COUNTRY" Value="USA"/>
         <ItemData ItemOID="DM.DMDTC" Value="2013-07-11"/>
         <ItemData ItemOID="DM.DMDY" Value="-8"/>
         <ItemData ItemOID="DM.COMPLT16" Value="Y"/>
         <ItemData ItemOID="DM.COMPLT24" Value="Y"/>
         <ItemData ItemOID="DM.COMPLT8" Value="Y"/>
         <ItemData ItemOID="DM.EFFICACY" Value="Y"/>
         <ItemData ItemOID="DM.ITT" Value="Y"/>
         <ItemData ItemOID="DM.SAFETY" Value="Y"/>
      </ItemGroupData>
      <ItemGroupData data:ItemGroupDataSeq="4" ItemGroupOID="DM">
         <ItemData ItemOID="DM.STUDYID" Value="CDISCPILOT01"/>
         <ItemData ItemOID="DM.DOMAIN" Value="DM"/>
         <ItemData ItemOID="DM.USUBJID" Value="01-701-1033"/>
         <ItemData ItemOID="DM.SUBJID" Value="1033"/>
         <ItemData ItemOID="DM.RFSTDTC" Value="2014-03-18"/>
         <ItemData ItemOID="DM.RFENDTC" Value="2014-04-14"/>
         <ItemData ItemOID="DM.RFXSTDTC" Value="2014-03-18"/>
         <ItemData ItemOID="DM.RFXENDTC" Value="2014-03-31"/>
         <ItemData ItemOID="DM.RFPENDTC" Value="2014-09-15"/>
         <ItemData ItemOID="DM.SITEID" Value="701"/>
         <ItemData ItemOID="DM.AGE" Value="74"/>
         <ItemData ItemOID="DM.AGEU" Value="YEARS"/>
         <ItemData ItemOID="DM.SEX" Value="M"/>
         <ItemData ItemOID="DM.RACE" Value="WHITE"/>
         <ItemData ItemOID="DM.ETHNIC" Value="NOT HISPANIC OR LATINO"/>
         <ItemData ItemOID="DM.ARMCD" Value="Xan_Lo"/>
         <ItemData ItemOID="DM.ARM" Value="Xanomeline Low Dose"/>
         <ItemData ItemOID="DM.ACTARMCD" Value="Xan_Lo"/>
         <ItemData ItemOID="DM.ACTARM" Value="Xanomeline Low Dose"/>
         <ItemData ItemOID="DM.COUNTRY" Value="USA"/>
         <ItemData ItemOID="DM.DMDTC" Value="2014-03-10"/>
         <ItemData ItemOID="DM.DMDY" Value="-8"/>
         <ItemData ItemOID="DM.EFFICACY" Value="Y"/>
         <ItemData ItemOID="DM.ITT" Value="Y"/>
         <ItemData ItemOID="DM.SAFETY" Value="Y"/>
      </ItemGroupData>
      <ItemGroupData data:ItemGroupDataSeq="5" ItemGroupOID="DM">
         <ItemData ItemOID="DM.STUDYID" Value="CDISCPILOT01"/>
         <ItemData ItemOID="DM.DOMAIN" Value="DM"/>
         <ItemData ItemOID="DM.USUBJID" Value="01-701-1034"/>
         <ItemData ItemOID="DM.SUBJID" Value="1034"/>
         <ItemData ItemOID="DM.RFSTDTC" Value="2014-07-01"/>
         <ItemData ItemOID="DM.RFENDTC" Value="2014-12-30"/>
         <ItemData ItemOID="DM.RFXSTDTC" Value="2014-07-01"/>
         <ItemData ItemOID="DM.RFXENDTC" Value="2014-12-30"/>
         <ItemData ItemOID="DM.RFPENDTC" Value="2014-12-30T09:50"/>
         <ItemData ItemOID="DM.SITEID" Value="701"/>
         <ItemData ItemOID="DM.AGE" Value="77"/>
         <ItemData ItemOID="DM.AGEU" Value="YEARS"/>
         <ItemData ItemOID="DM.SEX" Value="F"/>
         <ItemData ItemOID="DM.RACE" Value="WHITE"/>
         <ItemData ItemOID="DM.ETHNIC" Value="NOT HISPANIC OR LATINO"/>
         <ItemData ItemOID="DM.ARMCD" Value="Xan_Hi"/>
         <ItemData ItemOID="DM.ARM" Value="Xanomeline High Dose"/>
         <ItemData ItemOID="DM.ACTARMCD" Value="Xan_Hi"/>
         <ItemData ItemOID="DM.ACTARM" Value="Xanomeline High Dose"/>
         <ItemData ItemOID="DM.COUNTRY" Value="USA"/>
         <ItemData ItemOID="DM.DMDTC" Value="2014-06-24"/>
         <ItemData ItemOID="DM.DMDY" Value="-7"/>
         <ItemData ItemOID="DM.COMPLT16" Value="Y"/>
         <ItemData ItemOID="DM.COMPLT24" Value="Y"/>
         <ItemData ItemOID="DM.COMPLT8" Value="Y"/>
         <ItemData ItemOID="DM.EFFICACY" Value="Y"/>
         <ItemData ItemOID="DM.ITT" Value="Y"/>
         <ItemData ItemOID="DM.SAFETY" Value="Y"/>
      </ItemGroupData>
      <ItemGroupData data:ItemGroupDataSeq="6" ItemGroupOID="DM">
         <ItemData ItemOID="DM.STUDYID" Value="CDISCPILOT01"/>
         <ItemData ItemOID="DM.DOMAIN" Value="DM"/>
         <ItemData ItemOID="DM.USUBJID" Value="01-701-1047"/>
         <ItemData ItemOID="DM.SUBJID" Value="1047"/>
         <ItemData ItemOID="DM.RFSTDTC" Value="2013-02-12"/>
         <ItemData ItemOID="DM.RFENDTC" Value="2013-03-29"/>
         <ItemData ItemOID="DM.RFXSTDTC" Value="2013-02-12"/>
         <ItemData ItemOID="DM.RFXENDTC" Value="2013-03-09"/>
         <ItemData ItemOID="DM.RFPENDTC" Value="2013-07-28"/>
         <ItemData ItemOID="DM.SITEID" Value="701"/>
         <ItemData ItemOID="DM.AGE" Value="85"/>
         <ItemData ItemOID="DM.AGEU" Value="YEARS"/>
         <ItemData ItemOID="DM.SEX" Value="F"/>
         <ItemData ItemOID="DM.RACE" Value="WHITE"/>
         <ItemData ItemOID="DM.ETHNIC" Value="NOT HISPANIC OR LATINO"/>
         <ItemData ItemOID="DM.ARMCD" Value="Pbo"/>
         <ItemData ItemOID="DM.ARM" Value="Placebo"/>
         <ItemData ItemOID="DM.ACTARMCD" Value="Pbo"/>
         <ItemData ItemOID="DM.ACTARM" Value="Placebo"/>
         <ItemData ItemOID="DM.COUNTRY" Value="USA"/>
         <ItemData ItemOID="DM.DMDTC" Value="2013-01-22"/>
         <ItemData ItemOID="DM.DMDY" Value="-21"/>
         <ItemData ItemOID="DM.EFFICACY" Value="Y"/>
         <ItemData ItemOID="DM.ITT" Value="Y"/>
         <ItemData ItemOID="DM.SAFETY" Value="Y"/>
      </ItemGroupData>
      <ItemGroupData data:ItemGroupDataSeq="7" ItemGroupOID="DM">
         <ItemData ItemOID="DM.STUDYID" Value="CDISCPILOT01"/>
         <ItemData ItemOID="DM.DOMAIN" Value="DM"/>
         <ItemData ItemOID="DM.USUBJID" Value="01-701-1057"/>
         <ItemData ItemOID="DM.SUBJID" Value="1057"/>
         <ItemData ItemOID="DM.RFPENDTC" Value="2013-12-27"/>
         <ItemData ItemOID="DM.SITEID" Value="701"/>
         <ItemData ItemOID="DM.AGE" Value="59"/>
         <ItemData ItemOID="DM.AGEU" Value="YEARS"/>
         <ItemData ItemOID="DM.SEX" Value="F"/>
         <ItemData ItemOID="DM.RACE" Value="WHITE"/>
         <ItemData ItemOID="DM.ETHNIC" Value="HISPANIC OR LATINO"/>
         <ItemData ItemOID="DM.ARMCD" Value="Scrnfail"/>
         <ItemData ItemOID="DM.ARM" Value="Screen Failure"/>
         <ItemData ItemOID="DM.ACTARMCD" Value="Scrnfail"/>
         <ItemData ItemOID="DM.ACTARM" Value="Screen Failure"/>
         <ItemData ItemOID="DM.COUNTRY" Value="USA"/>
         <ItemData ItemOID="DM.DMDTC" Value="2013-12-20"/>
      </ItemGroupData>
      <ItemGroupData data:ItemGroupDataSeq="8" ItemGroupOID="DM">
         <ItemData ItemOID="DM.STUDYID" Value="CDISCPILOT01"/>
         <ItemData ItemOID="DM.DOMAIN" Value="DM"/>
         <ItemData ItemOID="DM.USUBJID" Value="01-701-1097"/>
         <ItemData ItemOID="DM.SUBJID" Value="1097"/>
         <ItemData ItemOID="DM.RFSTDTC" Value="2014-01-01"/>
         <ItemData ItemOID="DM.RFENDTC" Value="2014-07-09"/>
         <ItemData ItemOID="DM.RFXSTDTC" Value="2014-01-01"/>
         <ItemData ItemOID="DM.RFXENDTC" Value="2014-07-09"/>
         <ItemData ItemOID="DM.RFPENDTC" Value="2014-07-09T09:39"/>
         <ItemData ItemOID="DM.SITEID" Value="701"/>
         <ItemData ItemOID="DM.AGE" Value="68"/>
         <ItemData ItemOID="DM.AGEU" Value="YEARS"/>
         <ItemData ItemOID="DM.SEX" Value="M"/>
         <ItemData ItemOID="DM.RACE" Value="WHITE"/>
         <ItemData ItemOID="DM.ETHNIC" Value="NOT HISPANIC OR LATINO"/>
         <ItemData ItemOID="DM.ARMCD" Value="Xan_Lo"/>
         <ItemData ItemOID="DM.ARM" Value="Xanomeline Low Dose"/>
         <ItemData ItemOID="DM.ACTARMCD" Value="Xan_Lo"/>
         <ItemData ItemOID="DM.ACTARM" Value="Xanomeline Low Dose"/>
         <ItemData ItemOID="DM.COUNTRY" Value="USA"/>
         <ItemData ItemOID="DM.DMDTC" Value="2013-12-23"/>
         <ItemData ItemOID="DM.DMDY" Value="-9"/>
         <ItemData ItemOID="DM.COMPLT16" Value="Y"/>
         <ItemData ItemOID="DM.COMPLT24" Value="Y"/>
         <ItemData ItemOID="DM.COMPLT8" Value="Y"/>
         <ItemData ItemOID="DM.EFFICACY" Value="Y"/>
         <ItemData ItemOID="DM.ITT" Value="Y"/>
         <ItemData ItemOID="DM.SAFETY" Value="Y"/>
      </ItemGroupData>
      <ItemGroupData data:ItemGroupDataSeq="9" ItemGroupOID="DM">
         <ItemData ItemOID="DM.STUDYID" Value="CDISCPILOT01"/>
         <ItemData ItemOID="DM.DOMAIN" Value="DM"/>
         <ItemData ItemOID="DM.USUBJID" Value="01-701-1111"/>
         <ItemData ItemOID="DM.SUBJID" Value="1111"/>
         <ItemData ItemOID="DM.RFSTDTC" Value="2012-09-07"/>
         <ItemData ItemOID="DM.RFENDTC" Value="2012-09-17"/>
         <ItemData ItemOID="DM.RFXSTDTC" Value="2012-09-07"/>
         <ItemData ItemOID="DM.RFXENDTC" Value="2012-09-16"/>
         <ItemData ItemOID="DM.RFPENDTC" Value="2013-02-22"/>
         <ItemData ItemOID="DM.SITEID" Value="701"/>
         <ItemData ItemOID="DM.AGE" Value="81"/>
         <ItemData ItemOID="DM.AGEU" Value="YEARS"/>
         <ItemData ItemOID="DM.SEX" Value="F"/>
         <ItemData ItemOID="DM.RACE" Value="WHITE"/>
         <ItemData ItemOID="DM.ETHNIC" Value="NOT HISPANIC OR LATINO"/>
         <ItemData ItemOID="DM.ARMCD" Value="Xan_Lo"/>
         <ItemData ItemOID="DM.ARM" Value="Xanomeline Low Dose"/>
         <ItemData ItemOID="DM.ACTARMCD" Value="Xan_Lo"/>
         <ItemData ItemOID="DM.ACTARM" Value="Xanomeline Low Dose"/>
         <ItemData ItemOID="DM.COUNTRY" Value="USA"/>
         <ItemData ItemOID="DM.DMDTC" Value="2012-08-25"/>
         <ItemData ItemOID="DM.DMDY" Value="-13"/>
         <ItemData ItemOID="DM.EFFICACY" Value="Y"/>
         <ItemData ItemOID="DM.ITT" Value="Y"/>
         <ItemData ItemOID="DM.SAFETY" Value="Y"/>
      </ItemGroupData>
      <ItemGroupData data:ItemGroupDataSeq="10" ItemGroupOID="DM">
         <ItemData ItemOID="DM.STUDYID" Value="CDISCPILOT01"/>
         <ItemData ItemOID="DM.DOMAIN" Value="DM"/>
         <ItemData ItemOID="DM.USUBJID" Value="01-701-1115"/>
         <ItemData ItemOID="DM.SUBJID" Value="1115"/>
         <ItemData ItemOID="DM.RFSTDTC" Value="2012-11-30"/>
         <ItemData ItemOID="DM.RFENDTC" Value="2013-01-23"/>
         <ItemData ItemOID="DM.RFXSTDTC" Value="2012-11-30"/>
         <ItemData ItemOID="DM.RFXENDTC" Value="2013-01-23"/>
         <ItemData ItemOID="DM.RFPENDTC" Value="2013-05-20"/>
         <ItemData ItemOID="DM.SITEID" Value="701"/>
         <ItemData ItemOID="DM.AGE" Value="84"/>
         <ItemData ItemOID="DM.AGEU" Value="YEARS"/>
         <ItemData ItemOID="DM.SEX" Value="M"/>
         <ItemData ItemOID="DM.RACE" Value="WHITE"/>
         <ItemData ItemOID="DM.ETHNIC" Value="NOT HISPANIC OR LATINO"/>
         <ItemData ItemOID="DM.ARMCD" Value="Xan_Lo"/>
         <ItemData ItemOID="DM.ARM" Value="Xanomeline Low Dose"/>
         <ItemData ItemOID="DM.ACTARMCD" Value="Xan_Lo"/>
         <ItemData ItemOID="DM.ACTARM" Value="Xanomeline Low Dose"/>
         <ItemData ItemOID="DM.COUNTRY" Value="USA"/>
         <ItemData ItemOID="DM.DMDTC" Value="2012-11-23"/>
         <ItemData ItemOID="DM.DMDY" Value="-7"/>
         <ItemData ItemOID="DM.COMPLT8" Value="Y"/>
         <ItemData ItemOID="DM.EFFICACY" Value="Y"/>
         <ItemData ItemOID="DM.ITT" Value="Y"/>
         <ItemData ItemOID="DM.SAFETY" Value="Y"/>
      </ItemGroupData>
      <ItemGroupData data:ItemGroupDataSeq="11" ItemGroupOID="DM">
         <ItemData ItemOID="DM.STUDYID" Value="CDISCPILOT01"/>
         <ItemData ItemOID="DM.DOMAIN" Value="DM"/>
         <ItemData ItemOID="DM.USUBJID" Value="01-701-1118"/>
         <ItemData ItemOID="DM.SUBJID" Value="1118"/>
         <ItemData ItemOID="DM.RFSTDTC" Value="2014-03-12"/>
         <ItemData ItemOID="DM.RFENDTC" Value="2014-09-09"/>
         <ItemData ItemOID="DM.RFXSTDTC" Value="2014-03-12"/>
         <ItemData ItemOID="DM.RFXENDTC" Value="2014-09-09"/>
         <ItemData ItemOID="DM.RFPENDTC" Value="2014-09-09T13:28"/>
         <ItemData ItemOID="DM.SITEID" Value="701"/>
         <ItemData ItemOID="DM.AGE" Value="52"/>
         <ItemData ItemOID="DM.AGEU" Value="YEARS"/>
         <ItemData ItemOID="DM.SEX" Value="M"/>
         <ItemData ItemOID="DM.RACE" Value="WHITE"/>
         <ItemData ItemOID="DM.ETHNIC" Value="NOT HISPANIC OR LATINO"/>
         <ItemData ItemOID="DM.ARMCD" Value="Pbo"/>
         <ItemData ItemOID="DM.ARM" Value="Placebo"/>
         <ItemData ItemOID="DM.ACTARMCD" Value="Pbo"/>
         <ItemData ItemOID="DM.ACTARM" Value="Placebo"/>
         <ItemData ItemOID="DM.COUNTRY" Value="USA"/>
         <ItemData ItemOID="DM.DMDTC" Value="2014-02-27"/>
         <ItemData ItemOID="DM.DMDY" Value="-13"/>
         <ItemData ItemOID="DM.COMPLT16" Value="Y"/>
         <ItemData ItemOID="DM.COMPLT24" Value="Y"/>
         <ItemData ItemOID="DM.COMPLT8" Value="Y"/>
         <ItemData ItemOID="DM.EFFICACY" Value="Y"/>
         <ItemData ItemOID="DM.ITT" Value="Y"/>
         <ItemData ItemOID="DM.SAFETY" Value="Y"/>
      </ItemGroupData>
      <ItemGroupData data:ItemGroupDataSeq="12" ItemGroupOID="DM">
         <ItemData ItemOID="DM.STUDYID" Value="CDISCPILOT01"/>
         <ItemData ItemOID="DM.DOMAIN" Value="DM"/>
         <ItemData ItemOID="DM.USUBJID" Value="01-701-1130"/>
         <ItemData ItemOID="DM.SUBJID" Value="1130"/>
         <ItemData ItemOID="DM.RFSTDTC" Value="2014-02-15"/>
         <ItemData ItemOID="DM.RFENDTC" Value="2014-08-16"/>
         <ItemData ItemOID="DM.RFXSTDTC" Value="2014-02-15"/>
         <ItemData ItemOID="DM.RFXENDTC" Value="2014-08-16"/>
         <ItemData ItemOID="DM.RFPENDTC" Value="2014-08-16T13:10"/>
         <ItemData ItemOID="DM.SITEID" Value="701"/>
         <ItemData ItemOID="DM.AGE" Value="84"/>
         <ItemData ItemOID="DM.AGEU" Value="YEARS"/>
         <ItemData ItemOID="DM.SEX" Value="M"/>
         <ItemData ItemOID="DM.RACE" Value="WHITE"/>
         <ItemData ItemOID="DM.ETHNIC" Value="NOT HISPANIC OR LATINO"/>
         <ItemData ItemOID="DM.ARMCD" Value="Pbo"/>
         <ItemData ItemOID="DM.ARM" Value="Placebo"/>
         <ItemData ItemOID="DM.ACTARMCD" Value="Pbo"/>
         <ItemData ItemOID="DM.ACTARM" Value="Placebo"/>
         <ItemData ItemOID="DM.COUNTRY" Value="USA"/>
         <ItemData ItemOID="DM.DMDTC" Value="2014-02-09"/>
         <ItemData ItemOID="DM.DMDY" Value="-6"/>
         <ItemData ItemOID="DM.COMPLT16" Value="Y"/>
         <ItemData ItemOID="DM.COMPLT24" Value="Y"/>
         <ItemData ItemOID="DM.COMPLT8" Value="Y"/>
         <ItemData ItemOID="DM.EFFICACY" Value="Y"/>
         <ItemData ItemOID="DM.ITT" Value="Y"/>
         <ItemData ItemOID="DM.SAFETY" Value="Y"/>
      </ItemGroupData>
      <ItemGroupData data:ItemGroupDataSeq="13" ItemGroupOID="DM">
         <ItemData ItemOID="DM.STUDYID" Value="CDISCPILOT01"/>
         <ItemData ItemOID="DM.DOMAIN" Value="DM"/>
         <ItemData ItemOID="DM.USUBJID" Value="01-701-1133"/>
         <ItemData ItemOID="DM.SUBJID" Value="1133"/>
         <ItemData ItemOID="DM.RFSTDTC" Value="2012-10-28"/>
         <ItemData ItemOID="DM.RFENDTC" Value="2013-04-29"/>
         <ItemData ItemOID="DM.RFXSTDTC" Value="2012-10-28"/>
         <ItemData ItemOID="DM.RFXENDTC" Value="2013-04-28"/>
         <ItemData ItemOID="DM.RFPENDTC" Value="2013-04-29T10:13"/>
         <ItemData ItemOID="DM.SITEID" Value="701"/>
         <ItemData ItemOID="DM.AGE" Value="81"/>
         <ItemData ItemOID="DM.AGEU" Value="YEARS"/>
         <ItemData ItemOID="DM.SEX" Value="F"/>
         <ItemData ItemOID="DM.RACE" Value="WHITE"/>
         <ItemData ItemOID="DM.ETHNIC" Value="NOT HISPANIC OR LATINO"/>
         <ItemData ItemOID="DM.ARMCD" Value="Xan_Hi"/>
         <ItemData ItemOID="DM.ARM" Value="Xanomeline High Dose"/>
         <ItemData ItemOID="DM.ACTARMCD" Value="Xan_Hi"/>
         <ItemData ItemOID="DM.ACTARM" Value="Xanomeline High Dose"/>
         <ItemData ItemOID="DM.COUNTRY" Value="USA"/>
         <ItemData ItemOID="DM.DMDTC" Value="2012-10-23"/>
         <ItemData ItemOID="DM.DMDY" Value="-5"/>
         <ItemData ItemOID="DM.COMPLT16" Value="Y"/>
         <ItemData ItemOID="DM.COMPLT24" Value="Y"/>
         <ItemData ItemOID="DM.COMPLT8" Value="Y"/>
         <ItemData ItemOID="DM.EFFICACY" Value="Y"/>
         <ItemData ItemOID="DM.ITT" Value="Y"/>
         <ItemData ItemOID="DM.SAFETY" Value="Y"/>
      </ItemGroupData>
      <ItemGroupData data:ItemGroupDataSeq="14" ItemGroupOID="DM">
         <ItemData ItemOID="DM.STUDYID" Value="CDISCPILOT01"/>
         <ItemData ItemOID="DM.DOMAIN" Value="DM"/>
         <ItemData ItemOID="DM.USUBJID" Value="01-701-1145"/>
         <ItemData ItemOID="DM.SUBJID" Value="1145"/>
         <ItemData ItemOID="DM.RFPENDTC" Value="2013-09-19"/>
         <ItemData ItemOID="DM.SITEID" Value="701"/>
         <ItemData ItemOID="DM.AGE" Value="57"/>
         <ItemData ItemOID="DM.AGEU" Value="YEARS"/>
         <ItemData ItemOID="DM.SEX" Value="F"/>
         <ItemData ItemOID="DM.RACE" Value="WHITE"/>
         <ItemData ItemOID="DM.ETHNIC" Value="NOT HISPANIC OR LATINO"/>
         <ItemData ItemOID="DM.ARMCD" Value="Scrnfail"/>
         <ItemData ItemOID="DM.ARM" Value="Screen Failure"/>
         <ItemData ItemOID="DM.ACTARMCD" Value="Scrnfail"/>
         <ItemData ItemOID="DM.ACTARM" Value="Screen Failure"/>
         <ItemData ItemOID="DM.COUNTRY" Value="USA"/>
         <ItemData ItemOID="DM.DMDTC" Value="2013-09-05"/>
      </ItemGroupData>
      <ItemGroupData data:ItemGroupDataSeq="15" ItemGroupOID="DM">
         <ItemData ItemOID="DM.STUDYID" Value="CDISCPILOT01"/>
         <ItemData ItemOID="DM.DOMAIN" Value="DM"/>
         <ItemData ItemOID="DM.USUBJID" Value="01-701-1146"/>
         <ItemData ItemOID="DM.SUBJID" Value="1146"/>
         <ItemData ItemOID="DM.RFSTDTC" Value="2013-05-20"/>
         <ItemData ItemOID="DM.RFENDTC" Value="2013-06-30"/>
         <ItemData ItemOID="DM.RFXSTDTC" Value="2013-05-20"/>
         <ItemData ItemOID="DM.RFXENDTC" Value="2013-06-26"/>
         <ItemData ItemOID="DM.RFPENDTC" Value="2013-07-15"/>
         <ItemData ItemOID="DM.SITEID" Value="701"/>
         <ItemData ItemOID="DM.AGE" Value="75"/>
         <ItemData ItemOID="DM.AGEU" Value="YEARS"/>
         <ItemData ItemOID="DM.SEX" Value="F"/>
         <ItemData ItemOID="DM.RACE" Value="WHITE"/>
         <ItemData ItemOID="DM.ETHNIC" Value="NOT HISPANIC OR LATINO"/>
         <ItemData ItemOID="DM.ARMCD" Value="Xan_Hi"/>
         <ItemData ItemOID="DM.ARM" Value="Xanomeline High Dose"/>
         <ItemData ItemOID="DM.ACTARMCD" Value="Xan_Hi"/>
         <ItemData ItemOID="DM.ACTARM" Value="Xanomeline High Dose"/>
         <ItemData ItemOID="DM.COUNTRY" Value="USA"/>
         <ItemData ItemOID="DM.DMDTC" Value="2013-05-07"/>
         <ItemData ItemOID="DM.DMDY" Value="-13"/>
         <ItemData ItemOID="DM.EFFICACY" Value="Y"/>
         <ItemData ItemOID="DM.ITT" Value="Y"/>
         <ItemData ItemOID="DM.SAFETY" Value="Y"/>
      </ItemGroupData>
      <ItemGroupData data:ItemGroupDataSeq="16" ItemGroupOID="DM">
         <ItemData ItemOID="DM.STUDYID" Value="CDISCPILOT01"/>
         <ItemData ItemOID="DM.DOMAIN" Value="DM"/>
         <ItemData ItemOID="DM.USUBJID" Value="01-701-1148"/>
         <ItemData ItemOID="DM.SUBJID" Value="1148"/>
         <ItemData ItemOID="DM.RFSTDTC" Value="2013-08-23"/>
         <ItemData ItemOID="DM.RFENDTC" Value="2014-02-20"/>
         <ItemData ItemOID="DM.RFXSTDTC" Value="2013-08-23"/>
         <ItemData ItemOID="DM.RFXENDTC" Value="2014-02-20"/>
         <ItemData ItemOID="DM.RFPENDTC" Value="2014-02-20T15:07"/>
         <ItemData ItemOID="DM.SITEID" Value="701"/>
         <ItemData ItemOID="DM.AGE" Value="57"/>
         <ItemData ItemOID="DM.AGEU" Value="YEARS"/>
         <ItemData ItemOID="DM.SEX" Value="M"/>
         <ItemData ItemOID="DM.RACE" Value="WHITE"/>
         <ItemData ItemOID="DM.ETHNIC" Value="NOT HISPANIC OR LATINO"/>
         <ItemData ItemOID="DM.ARMCD" Value="Xan_Hi"/>
         <ItemData ItemOID="DM.ARM" Value="Xanomeline High Dose"/>
         <ItemData ItemOID="DM.ACTARMCD" Value="Xan_Hi"/>
         <ItemData ItemOID="DM.ACTARM" Value="Xanomeline High Dose"/>
         <ItemData ItemOID="DM.COUNTRY" Value="USA"/>
         <ItemData ItemOID="DM.DMDTC" Value="2013-08-14"/>
         <ItemData ItemOID="DM.DMDY" Value="-9"/>
         <ItemData ItemOID="DM.COMPLT16" Value="Y"/>
         <ItemData ItemOID="DM.COMPLT24" Value="Y"/>
         <ItemData ItemOID="DM.COMPLT8" Value="Y"/>
         <ItemData ItemOID="DM.EFFICACY" Value="Y"/>
         <ItemData ItemOID="DM.ITT" Value="Y"/>
         <ItemData ItemOID="DM.SAFETY" Value="Y"/>
      </ItemGroupData>
      <ItemGroupData data:ItemGroupDataSeq="17" ItemGroupOID="DM">
         <ItemData ItemOID="DM.STUDYID" Value="CDISCPILOT01"/>
         <ItemData ItemOID="DM.DOMAIN" Value="DM"/>
         <ItemData ItemOID="DM.USUBJID" Value="01-701-1153"/>
         <ItemData ItemOID="DM.SUBJID" Value="1153"/>
         <ItemData ItemOID="DM.RFSTDTC" Value="2013-09-23"/>
         <ItemData ItemOID="DM.RFENDTC" Value="2014-04-01"/>
         <ItemData ItemOID="DM.RFXSTDTC" Value="2013-09-23"/>
         <ItemData ItemOID="DM.RFXENDTC" Value="2014-03-16"/>
         <ItemData ItemOID="DM.RFPENDTC" Value="2014-04-01T14:25"/>
         <ItemData ItemOID="DM.SITEID" Value="701"/>
         <ItemData ItemOID="DM.AGE" Value="79"/>
         <ItemData ItemOID="DM.AGEU" Value="YEARS"/>
         <ItemData ItemOID="DM.SEX" Value="F"/>
         <ItemData ItemOID="DM.RACE" Value="WHITE"/>
         <ItemData ItemOID="DM.ETHNIC" Value="NOT HISPANIC OR LATINO"/>
         <ItemData ItemOID="DM.ARMCD" Value="Pbo"/>
         <ItemData ItemOID="DM.ARM" Value="Placebo"/>
         <ItemData ItemOID="DM.ACTARMCD" Value="Pbo"/>
         <ItemData ItemOID="DM.ACTARM" Value="Placebo"/>
         <ItemData ItemOID="DM.COUNTRY" Value="USA"/>
         <ItemData ItemOID="DM.DMDTC" Value="2013-09-06"/>
         <ItemData ItemOID="DM.DMDY" Value="-17"/>
         <ItemData ItemOID="DM.COMPLT16" Value="Y"/>
         <ItemData ItemOID="DM.COMPLT24" Value="Y"/>
         <ItemData ItemOID="DM.COMPLT8" Value="Y"/>
         <ItemData ItemOID="DM.EFFICACY" Value="Y"/>
         <ItemData ItemOID="DM.ITT" Value="Y"/>
         <ItemData ItemOID="DM.SAFETY" Value="Y"/>
      </ItemGroupData>
      <ItemGroupData data:ItemGroupDataSeq="18" ItemGroupOID="DM">
         <ItemData ItemOID="DM.STUDYID" Value="CDISCPILOT01"/>
         <ItemData ItemOID="DM.DOMAIN" Value="DM"/>
         <ItemData ItemOID="DM.USUBJID" Value="01-701-1162"/>
         <ItemData ItemOID="DM.SUBJID" Value="1162"/>
         <ItemData ItemOID="DM.RFPENDTC" Value="2013-04-18"/>
         <ItemData ItemOID="DM.SITEID" Value="701"/>
         <ItemData ItemOID="DM.AGE" Value="82"/>
         <ItemData ItemOID="DM.AGEU" Value="YEARS"/>
         <ItemData ItemOID="DM.SEX" Value="F"/>
         <ItemData ItemOID="DM.RACE" Value="WHITE"/>
         <ItemData ItemOID="DM.ETHNIC" Value="NOT HISPANIC OR LATINO"/>
         <ItemData ItemOID="DM.ARMCD" Value="Scrnfail"/>
         <ItemData ItemOID="DM.ARM" Value="Screen Failure"/>
         <ItemData ItemOID="DM.ACTARMCD" Value="Scrnfail"/>
         <ItemData ItemOID="DM.ACTARM" Value="Screen Failure"/>
         <ItemData ItemOID="DM.COUNTRY" Value="USA"/>
         <ItemData ItemOID="DM.DMDTC" Value="2013-04-18"/>
      </ItemGroupData>
      <ItemGroupData data:ItemGroupDataSeq="19" ItemGroupOID="DM">
         <ItemData ItemOID="DM.STUDYID" Value="CDISCPILOT01"/>
         <ItemData ItemOID="DM.DOMAIN" Value="DM"/>
         <ItemData ItemOID="DM.USUBJID" Value="01-701-1176"/>
         <ItemData ItemOID="DM.SUBJID" Value="1176"/>
         <ItemData ItemOID="DM.RFPENDTC" Value="2012-09-30"/>
         <ItemData ItemOID="DM.SITEID" Value="701"/>
         <ItemData ItemOID="DM.AGE" Value="62"/>
         <ItemData ItemOID="DM.AGEU" Value="YEARS"/>
         <ItemData ItemOID="DM.SEX" Value="F"/>
         <ItemData ItemOID="DM.RACE" Value="AMERICAN INDIAN OR ALASKA NATIVE"/>
         <ItemData ItemOID="DM.ETHNIC" Value="NOT HISPANIC OR LATINO"/>
         <ItemData ItemOID="DM.ARMCD" Value="Scrnfail"/>
         <ItemData ItemOID="DM.ARM" Value="Screen Failure"/>
         <ItemData ItemOID="DM.ACTARMCD" Value="Scrnfail"/>
         <ItemData ItemOID="DM.ACTARM" Value="Screen Failure"/>
         <ItemData ItemOID="DM.COUNTRY" Value="USA"/>
         <ItemData ItemOID="DM.DMDTC" Value="2012-09-30"/>
      </ItemGroupData>
      <ItemGroupData data:ItemGroupDataSeq="20" ItemGroupOID="DM">
         <ItemData ItemOID="DM.STUDYID" Value="CDISCPILOT01"/>
         <ItemData ItemOID="DM.DOMAIN" Value="DM"/>
         <ItemData ItemOID="DM.USUBJID" Value="01-701-1180"/>
         <ItemData ItemOID="DM.SUBJID" Value="1180"/>
         <ItemData ItemOID="DM.RFSTDTC" Value="2013-02-12"/>
         <ItemData ItemOID="DM.RFENDTC" Value="2013-03-23"/>
         <ItemData ItemOID="DM.RFXSTDTC" Value="2013-02-12"/>
         <ItemData ItemOID="DM.RFXENDTC" Value="2013-03-18"/>
         <ItemData ItemOID="DM.RFPENDTC" Value="2013-04-07"/>
         <ItemData ItemOID="DM.SITEID" Value="701"/>
         <ItemData ItemOID="DM.AGE" Value="56"/>
         <ItemData ItemOID="DM.AGEU" Value="YEARS"/>
         <ItemData ItemOID="DM.SEX" Value="M"/>
         <ItemData ItemOID="DM.RACE" Value="WHITE"/>
         <ItemData ItemOID="DM.ETHNIC" Value="NOT HISPANIC OR LATINO"/>
         <ItemData ItemOID="DM.ARMCD" Value="Xan_Hi"/>
         <ItemData ItemOID="DM.ARM" Value="Xanomeline High Dose"/>
         <ItemData ItemOID="DM.ACTARMCD" Value="Xan_Hi"/>
         <ItemData ItemOID="DM.ACTARM" Value="Xanomeline High Dose"/>
         <ItemData ItemOID="DM.COUNTRY" Value="USA"/>
         <ItemData ItemOID="DM.DMDTC" Value="2013-01-28"/>
         <ItemData ItemOID="DM.DMDY" Value="-15"/>
         <ItemData ItemOID="DM.EFFICACY" Value="Y"/>
         <ItemData ItemOID="DM.ITT" Value="Y"/>
         <ItemData ItemOID="DM.SAFETY" Value="Y"/>
      </ItemGroupData>
      <ItemGroupData data:ItemGroupDataSeq="21" ItemGroupOID="DM">
         <ItemData ItemOID="DM.STUDYID" Value="CDISCPILOT01"/>
         <ItemData ItemOID="DM.DOMAIN" Value="DM"/>
         <ItemData ItemOID="DM.USUBJID" Value="01-701-1181"/>
         <ItemData ItemOID="DM.SUBJID" Value="1181"/>
         <ItemData ItemOID="DM.RFSTDTC" Value="2013-12-05"/>
         <ItemData ItemOID="DM.RFENDTC" Value="2013-12-12"/>
         <ItemData ItemOID="DM.RFXSTDTC" Value="2013-12-05"/>
         <ItemData ItemOID="DM.RFXENDTC" Value="2013-12-09"/>
         <ItemData ItemOID="DM.RFPENDTC" Value="2014-05-23"/>
         <ItemData ItemOID="DM.SITEID" Value="701"/>
         <ItemData ItemOID="DM.AGE" Value="79"/>
         <ItemData ItemOID="DM.AGEU" Value="YEARS"/>
         <ItemData ItemOID="DM.SEX" Value="F"/>
         <ItemData ItemOID="DM.RACE" Value="WHITE"/>
         <ItemData ItemOID="DM.ETHNIC" Value="NOT HISPANIC OR LATINO"/>
         <ItemData ItemOID="DM.ARMCD" Value="Xan_Hi"/>
         <ItemData ItemOID="DM.ARM" Value="Xanomeline High Dose"/>
         <ItemData ItemOID="DM.ACTARMCD" Value="Xan_Lo"/>
         <ItemData ItemOID="DM.ACTARM" Value="Xanomeline Low Dose"/>
         <ItemData ItemOID="DM.COUNTRY" Value="USA"/>
         <ItemData ItemOID="DM.DMDTC" Value="2013-11-26"/>
         <ItemData ItemOID="DM.DMDY" Value="-9"/>
         <ItemData ItemOID="DM.EFFICACY" Value="Y"/>
         <ItemData ItemOID="DM.ITT" Value="Y"/>
         <ItemData ItemOID="DM.SAFETY" Value="Y"/>
      </ItemGroupData>
      <ItemGroupData data:ItemGroupDataSeq="22" ItemGroupOID="DM">
         <ItemData ItemOID="DM.STUDYID" Value="CDISCPILOT01"/>
         <ItemData ItemOID="DM.DOMAIN" Value="DM"/>
         <ItemData ItemOID="DM.USUBJID" Value="01-701-1188"/>
         <ItemData ItemOID="DM.SUBJID" Value="1188"/>
         <ItemData ItemOID="DM.RFSTDTC" Value="2013-02-15"/>
         <ItemData ItemOID="DM.RFENDTC" Value="2013-03-25"/>
         <ItemData ItemOID="DM.RFXSTDTC" Value="2013-02-15"/>
         <ItemData ItemOID="DM.RFXENDTC" Value="2013-03-24"/>
         <ItemData ItemOID="DM.RFPENDTC" Value="2013-08-04"/>
         <ItemData ItemOID="DM.SITEID" Value="701"/>
         <ItemData ItemOID="DM.AGE" Value="71"/>
         <ItemData ItemOID="DM.AGEU" Value="YEARS"/>
         <ItemData ItemOID="DM.SEX" Value="M"/>
         <ItemData ItemOID="DM.RACE" Value="WHITE"/>
         <ItemData ItemOID="DM.ETHNIC" Value="NOT HISPANIC OR LATINO"/>
         <ItemData ItemOID="DM.ARMCD" Value="Xan_Lo"/>
         <ItemData ItemOID="DM.ARM" Value="Xanomeline Low Dose"/>
         <ItemData ItemOID="DM.ACTARMCD" Value="Xan_Lo"/>
         <ItemData ItemOID="DM.ACTARM" Value="Xanomeline Low Dose"/>
         <ItemData ItemOID="DM.COUNTRY" Value="USA"/>
         <ItemData ItemOID="DM.DMDTC" Value="2013-02-03"/>
         <ItemData ItemOID="DM.DMDY" Value="-12"/>
         <ItemData ItemOID="DM.EFFICACY" Value="Y"/>
         <ItemData ItemOID="DM.ITT" Value="Y"/>
         <ItemData ItemOID="DM.SAFETY" Value="Y"/>
      </ItemGroupData>
      <ItemGroupData data:ItemGroupDataSeq="23" ItemGroupOID="DM">
         <ItemData ItemOID="DM.STUDYID" Value="CDISCPILOT01"/>
         <ItemData ItemOID="DM.DOMAIN" Value="DM"/>
         <ItemData ItemOID="DM.USUBJID" Value="01-701-1192"/>
         <ItemData ItemOID="DM.SUBJID" Value="1192"/>
         <ItemData ItemOID="DM.RFSTDTC" Value="2012-07-22"/>
         <ItemData ItemOID="DM.RFENDTC" Value="2013-01-20"/>
         <ItemData ItemOID="DM.RFXSTDTC" Value="2012-07-22"/>
         <ItemData ItemOID="DM.RFXENDTC" Value="2013-01-20"/>
         <ItemData ItemOID="DM.RFPENDTC" Value="2013-01-20T15:47"/>
         <ItemData ItemOID="DM.SITEID" Value="701"/>
         <ItemData ItemOID="DM.AGE" Value="80"/>
         <ItemData ItemOID="DM.AGEU" Value="YEARS"/>
         <ItemData ItemOID="DM.SEX" Value="F"/>
         <ItemData ItemOID="DM.RACE" Value="WHITE"/>
         <ItemData ItemOID="DM.ETHNIC" Value="NOT HISPANIC OR LATINO"/>
         <ItemData ItemOID="DM.ARMCD" Value="Xan_Lo"/>
         <ItemData ItemOID="DM.ARM" Value="Xanomeline Low Dose"/>
         <ItemData ItemOID="DM.ACTARMCD" Value="Xan_Lo"/>
         <ItemData ItemOID="DM.ACTARM" Value="Xanomeline Low Dose"/>
         <ItemData ItemOID="DM.COUNTRY" Value="USA"/>
         <ItemData ItemOID="DM.DMDTC" Value="2012-07-08"/>
         <ItemData ItemOID="DM.DMDY" Value="-14"/>
         <ItemData ItemOID="DM.COMPLT16" Value="Y"/>
         <ItemData ItemOID="DM.COMPLT24" Value="Y"/>
         <ItemData ItemOID="DM.COMPLT8" Value="Y"/>
         <ItemData ItemOID="DM.EFFICACY" Value="Y"/>
         <ItemData ItemOID="DM.ITT" Value="Y"/>
         <ItemData ItemOID="DM.SAFETY" Value="Y"/>
      </ItemGroupData>
      <ItemGroupData data:ItemGroupDataSeq="24" ItemGroupOID="DM">
         <ItemData ItemOID="DM.STUDYID" Value="CDISCPILOT01"/>
         <ItemData ItemOID="DM.DOMAIN" Value="DM"/>
         <ItemData ItemOID="DM.USUBJID" Value="01-701-1203"/>
         <ItemData ItemOID="DM.SUBJID" Value="1203"/>
         <ItemData ItemOID="DM.RFSTDTC" Value="2013-02-02"/>
         <ItemData ItemOID="DM.RFENDTC" Value="2013-08-03"/>
         <ItemData ItemOID="DM.RFXSTDTC" Value="2013-02-02"/>
         <ItemData ItemOID="DM.RFXENDTC" Value="2013-08-03"/>
         <ItemData ItemOID="DM.RFPENDTC" Value="2013-08-03T10:10"/>
         <ItemData ItemOID="DM.SITEID" Value="701"/>
         <ItemData ItemOID="DM.AGE" Value="81"/>
         <ItemData ItemOID="DM.AGEU" Value="YEARS"/>
         <ItemData ItemOID="DM.SEX" Value="F"/>
         <ItemData ItemOID="DM.RACE" Value="BLACK OR AFRICAN AMERICAN"/>
         <ItemData ItemOID="DM.ETHNIC" Value="NOT HISPANIC OR LATINO"/>
         <ItemData ItemOID="DM.ARMCD" Value="Pbo"/>
         <ItemData ItemOID="DM.ARM" Value="Placebo"/>
         <ItemData ItemOID="DM.ACTARMCD" Value="Pbo"/>
         <ItemData ItemOID="DM.ACTARM" Value="Placebo"/>
         <ItemData ItemOID="DM.COUNTRY" Value="USA"/>
         <ItemData ItemOID="DM.DMDTC" Value="2013-01-25"/>
         <ItemData ItemOID="DM.DMDY" Value="-8"/>
         <ItemData ItemOID="DM.COMPLT16" Value="Y"/>
         <ItemData ItemOID="DM.COMPLT24" Value="Y"/>
         <ItemData ItemOID="DM.COMPLT8" Value="Y"/>
         <ItemData ItemOID="DM.EFFICACY" Value="Y"/>
         <ItemData ItemOID="DM.ITT" Value="Y"/>
         <ItemData ItemOID="DM.SAFETY" Value="Y"/>
      </ItemGroupData>
      <ItemGroupData data:ItemGroupDataSeq="25" ItemGroupOID="DM">
         <ItemData ItemOID="DM.STUDYID" Value="CDISCPILOT01"/>
         <ItemData ItemOID="DM.DOMAIN" Value="DM"/>
         <ItemData ItemOID="DM.USUBJID" Value="01-701-1211"/>
         <ItemData ItemOID="DM.SUBJID" Value="1211"/>
         <ItemData ItemOID="DM.RFSTDTC" Value="2012-11-15"/>
         <ItemData ItemOID="DM.RFENDTC" Value="2013-01-14"/>
         <ItemData ItemOID="DM.RFXSTDTC" Value="2012-11-15"/>
         <ItemData ItemOID="DM.RFXENDTC" Value="2013-01-12"/>
         <ItemData ItemOID="DM.RFPENDTC" Value="2013-01-14"/>
         <ItemData ItemOID="DM.DTHDTC" Value="2013-01-14"/>
         <ItemData ItemOID="DM.DTHFL" Value="Y"/>
         <ItemData ItemOID="DM.SITEID" Value="701"/>
         <ItemData ItemOID="DM.AGE" Value="76"/>
         <ItemData ItemOID="DM.AGEU" Value="YEARS"/>
         <ItemData ItemOID="DM.SEX" Value="F"/>
         <ItemData ItemOID="DM.RACE" Value="WHITE"/>
         <ItemData ItemOID="DM.ETHNIC" Value="NOT HISPANIC OR LATINO"/>
         <ItemData ItemOID="DM.ARMCD" Value="Xan_Lo"/>
         <ItemData ItemOID="DM.ARM" Value="Xanomeline Low Dose"/>
         <ItemData ItemOID="DM.ACTARMCD" Value="Xan_Lo"/>
         <ItemData ItemOID="DM.ACTARM" Value="Xanomeline Low Dose"/>
         <ItemData ItemOID="DM.COUNTRY" Value="USA"/>
         <ItemData ItemOID="DM.DMDTC" Value="2012-10-30"/>
         <ItemData ItemOID="DM.DMDY" Value="-16"/>
         <ItemData ItemOID="DM.COMPLT8" Value="Y"/>
         <ItemData ItemOID="DM.EFFICACY" Value="Y"/>
         <ItemData ItemOID="DM.ITT" Value="Y"/>
         <ItemData ItemOID="DM.SAFETY" Value="Y"/>
      </ItemGroupData>
      <ItemGroupData data:ItemGroupDataSeq="26" ItemGroupOID="DM">
         <ItemData ItemOID="DM.STUDYID" Value="CDISCPILOT01"/>
         <ItemData ItemOID="DM.DOMAIN" Value="DM"/>
         <ItemData ItemOID="DM.USUBJID" Value="01-701-1234"/>
         <ItemData ItemOID="DM.SUBJID" Value="1234"/>
         <ItemData ItemOID="DM.RFSTDTC" Value="2013-03-30"/>
         <ItemData ItemOID="DM.RFENDTC" Value="2013-09-22"/>
         <ItemData ItemOID="DM.RFXSTDTC" Value="2013-03-30"/>
         <ItemData ItemOID="DM.RFXENDTC" Value="2013-09-22"/>
         <ItemData ItemOID="DM.RFPENDTC" Value="2013-09-22T09:25"/>
         <ItemData ItemOID="DM.SITEID" Value="701"/>
         <ItemData ItemOID="DM.AGE" Value="69"/>
         <ItemData ItemOID="DM.AGEU" Value="YEARS"/>
         <ItemData ItemOID="DM.SEX" Value="M"/>
         <ItemData ItemOID="DM.RACE" Value="WHITE"/>
         <ItemData ItemOID="DM.ETHNIC" Value="NOT HISPANIC OR LATINO"/>
         <ItemData ItemOID="DM.ARMCD" Value="Pbo"/>
         <ItemData ItemOID="DM.ARM" Value="Placebo"/>
         <ItemData ItemOID="DM.ACTARMCD" Value="Pbo"/>
         <ItemData ItemOID="DM.ACTARM" Value="Placebo"/>
         <ItemData ItemOID="DM.COUNTRY" Value="USA"/>
         <ItemData ItemOID="DM.DMDTC" Value="2013-03-20"/>
         <ItemData ItemOID="DM.DMDY" Value="-10"/>
         <ItemData ItemOID="DM.COMPLT16" Value="Y"/>
         <ItemData ItemOID="DM.COMPLT24" Value="Y"/>
         <ItemData ItemOID="DM.COMPLT8" Value="Y"/>
         <ItemData ItemOID="DM.EFFICACY" Value="Y"/>
         <ItemData ItemOID="DM.ITT" Value="Y"/>
         <ItemData ItemOID="DM.SAFETY" Value="Y"/>
      </ItemGroupData>
      <ItemGroupData data:ItemGroupDataSeq="27" ItemGroupOID="DM">
         <ItemData ItemOID="DM.STUDYID" Value="CDISCPILOT01"/>
         <ItemData ItemOID="DM.DOMAIN" Value="DM"/>
         <ItemData ItemOID="DM.USUBJID" Value="01-701-1239"/>
         <ItemData ItemOID="DM.SUBJID" Value="1239"/>
         <ItemData ItemOID="DM.RFSTDTC" Value="2014-01-11"/>
         <ItemData ItemOID="DM.RFENDTC" Value="2014-07-11"/>
         <ItemData ItemOID="DM.RFXSTDTC" Value="2014-01-11"/>
         <ItemData ItemOID="DM.RFXENDTC" Value="2014-07-10"/>
         <ItemData ItemOID="DM.RFPENDTC" Value="2014-07-11T15:40"/>
         <ItemData ItemOID="DM.SITEID" Value="701"/>
         <ItemData ItemOID="DM.AGE" Value="56"/>
         <ItemData ItemOID="DM.AGEU" Value="YEARS"/>
         <ItemData ItemOID="DM.SEX" Value="M"/>
         <ItemData ItemOID="DM.RACE" Value="WHITE"/>
         <ItemData ItemOID="DM.ETHNIC" Value="HISPANIC OR LATINO"/>
         <ItemData ItemOID="DM.ARMCD" Value="Xan_Hi"/>
         <ItemData ItemOID="DM.ARM" Value="Xanomeline High Dose"/>
         <ItemData ItemOID="DM.ACTARMCD" Value="Xan_Hi"/>
         <ItemData ItemOID="DM.ACTARM" Value="Xanomeline High Dose"/>
         <ItemData ItemOID="DM.COUNTRY" Value="USA"/>
         <ItemData ItemOID="DM.DMDTC" Value="2013-12-28"/>
         <ItemData ItemOID="DM.DMDY" Value="-14"/>
         <ItemData ItemOID="DM.COMPLT16" Value="Y"/>
         <ItemData ItemOID="DM.COMPLT24" Value="Y"/>
         <ItemData ItemOID="DM.COMPLT8" Value="Y"/>
         <ItemData ItemOID="DM.EFFICACY" Value="Y"/>
         <ItemData ItemOID="DM.ITT" Value="Y"/>
         <ItemData ItemOID="DM.SAFETY" Value="Y"/>
      </ItemGroupData>
      <ItemGroupData data:ItemGroupDataSeq="28" ItemGroupOID="DM">
	      <ItemData ItemOID="DM.STUDYID" Value="CDISCPILOT01" />
	      <ItemData ItemOID="DM.DOMAIN" Value="DM" />
	      <ItemData ItemOID="DM.USUBJID" Value="01-701-1240" />
	      <ItemData ItemOID="DM.SUBJID" Value="1240" />
	      <ItemData ItemOID="DM.RFPENDTC" Value="2013-09-24" />
	      <ItemData ItemOID="DM.SITEID" Value="701" />
	      <ItemData ItemOID="DM.AGE" Value="57" />
	      <ItemData ItemOID="DM.AGEU" Value="YEARS" />
	      <ItemData ItemOID="DM.SEX" Value="F" />
	      <ItemData ItemOID="DM.RACE" Value="BLACK OR AFRICAN AMERICAN" />
	      <ItemData ItemOID="DM.ETHNIC" Value="NOT HISPANIC OR LATINO" />
	      <ItemData ItemOID="DM.ARMCD" Value="Scrnfail" />
	      <ItemData ItemOID="DM.ARM" Value="Screen Failure" />
	      <ItemData ItemOID="DM.ACTARMCD" Value="Scrnfail" />
	      <ItemData ItemOID="DM.ACTARM" Value="Screen Failure" />
	      <ItemData ItemOID="DM.COUNTRY" Value="USA" />
	      <ItemData ItemOID="DM.DMDTC" Value="2013-09-22" />
      </ItemGroupData>
      <ItemGroupData data:ItemGroupDataSeq="29" ItemGroupOID="DM">
         <ItemData ItemOID="DM.STUDYID" Value="CDISCPILOT01"/>
         <ItemData ItemOID="DM.DOMAIN" Value="DM"/>
         <ItemData ItemOID="DM.USUBJID" Value="01-701-1275"/>
         <ItemData ItemOID="DM.SUBJID" Value="1275"/>
         <ItemData ItemOID="DM.RFSTDTC" Value="2014-02-07"/>
         <ItemData ItemOID="DM.RFENDTC" Value="2014-06-14"/>
         <ItemData ItemOID="DM.RFXSTDTC" Value="2014-02-07"/>
         <ItemData ItemOID="DM.RFXENDTC" Value="2014-05-31"/>
         <ItemData ItemOID="DM.RFPENDTC" Value="2014-06-14T12:35"/>
         <ItemData ItemOID="DM.SITEID" Value="701"/>
         <ItemData ItemOID="DM.AGE" Value="61"/>
         <ItemData ItemOID="DM.AGEU" Value="YEARS"/>
         <ItemData ItemOID="DM.SEX" Value="M"/>
         <ItemData ItemOID="DM.RACE" Value="AMERICAN INDIAN OR ALASKA NATIVE"/>
         <ItemData ItemOID="DM.ETHNIC" Value="NOT HISPANIC OR LATINO"/>
         <ItemData ItemOID="DM.ARMCD" Value="Xan_Hi"/>
         <ItemData ItemOID="DM.ARM" Value="Xanomeline High Dose"/>
         <ItemData ItemOID="DM.ACTARMCD" Value="Xan_Hi"/>
         <ItemData ItemOID="DM.ACTARM" Value="Xanomeline High Dose"/>
         <ItemData ItemOID="DM.COUNTRY" Value="USA"/>
         <ItemData ItemOID="DM.DMDTC" Value="2014-01-25"/>
         <ItemData ItemOID="DM.DMDY" Value="-13"/>
         <ItemData ItemOID="DM.COMPLT16" Value="Y"/>
         <ItemData ItemOID="DM.COMPLT8" Value="Y"/>
         <ItemData ItemOID="DM.EFFICACY" Value="Y"/>
         <ItemData ItemOID="DM.ITT" Value="Y"/>
         <ItemData ItemOID="DM.SAFETY" Value="Y"/>
      </ItemGroupData>
      <ItemGroupData data:ItemGroupDataSeq="30" ItemGroupOID="DM">
         <ItemData ItemOID="DM.STUDYID" Value="CDISCPILOT01"/>
         <ItemData ItemOID="DM.DOMAIN" Value="DM"/>
         <ItemData ItemOID="DM.USUBJID" Value="01-701-1287"/>
         <ItemData ItemOID="DM.SUBJID" Value="1287"/>
         <ItemData ItemOID="DM.RFSTDTC" Value="2014-01-25"/>
         <ItemData ItemOID="DM.RFENDTC" Value="2014-07-26"/>
         <ItemData ItemOID="DM.RFXSTDTC" Value="2014-01-25"/>
         <ItemData ItemOID="DM.RFXENDTC" Value="2014-07-26"/>
         <ItemData ItemOID="DM.RFPENDTC" Value="2014-07-26T13:15"/>
         <ItemData ItemOID="DM.SITEID" Value="701"/>
         <ItemData ItemOID="DM.AGE" Value="56"/>
         <ItemData ItemOID="DM.AGEU" Value="YEARS"/>
         <ItemData ItemOID="DM.SEX" Value="F"/>
         <ItemData ItemOID="DM.RACE" Value="WHITE"/>
         <ItemData ItemOID="DM.ETHNIC" Value="HISPANIC OR LATINO"/>
         <ItemData ItemOID="DM.ARMCD" Value="Xan_Hi"/>
         <ItemData ItemOID="DM.ARM" Value="Xanomeline High Dose"/>
         <ItemData ItemOID="DM.ACTARMCD" Value="Xan_Hi"/>
         <ItemData ItemOID="DM.ACTARM" Value="Xanomeline High Dose"/>
         <ItemData ItemOID="DM.COUNTRY" Value="USA"/>
         <ItemData ItemOID="DM.DMDTC" Value="2014-01-17"/>
         <ItemData ItemOID="DM.DMDY" Value="-8"/>
         <ItemData ItemOID="DM.COMPLT16" Value="Y"/>
         <ItemData ItemOID="DM.COMPLT24" Value="Y"/>
         <ItemData ItemOID="DM.COMPLT8" Value="Y"/>
         <ItemData ItemOID="DM.EFFICACY" Value="Y"/>
         <ItemData ItemOID="DM.ITT" Value="Y"/>
         <ItemData ItemOID="DM.SAFETY" Value="Y"/>
      </ItemGroupData>
      <ItemGroupData data:ItemGroupDataSeq="31" ItemGroupOID="DM">
         <ItemData ItemOID="DM.STUDYID" Value="CDISCPILOT01"/>
         <ItemData ItemOID="DM.DOMAIN" Value="DM"/>
         <ItemData ItemOID="DM.USUBJID" Value="01-701-1294"/>
         <ItemData ItemOID="DM.SUBJID" Value="1294"/>
         <ItemData ItemOID="DM.RFSTDTC" Value="2013-03-24"/>
         <ItemData ItemOID="DM.RFENDTC" Value="2013-06-14"/>
         <ItemData ItemOID="DM.RFXSTDTC" Value="2013-03-24"/>
         <ItemData ItemOID="DM.RFXENDTC" Value="2013-06-14"/>
         <ItemData ItemOID="DM.RFPENDTC" Value="2013-10-08"/>
         <ItemData ItemOID="DM.SITEID" Value="701"/>
         <ItemData ItemOID="DM.AGE" Value="67"/>
         <ItemData ItemOID="DM.AGEU" Value="YEARS"/>
         <ItemData ItemOID="DM.SEX" Value="M"/>
         <ItemData ItemOID="DM.RACE" Value="WHITE"/>
         <ItemData ItemOID="DM.ETHNIC" Value="NOT HISPANIC OR LATINO"/>
         <ItemData ItemOID="DM.ARMCD" Value="Xan_Lo"/>
         <ItemData ItemOID="DM.ARM" Value="Xanomeline Low Dose"/>
         <ItemData ItemOID="DM.ACTARMCD" Value="Xan_Lo"/>
         <ItemData ItemOID="DM.ACTARM" Value="Xanomeline Low Dose"/>
         <ItemData ItemOID="DM.COUNTRY" Value="USA"/>
         <ItemData ItemOID="DM.DMDTC" Value="2013-03-17"/>
         <ItemData ItemOID="DM.DMDY" Value="-7"/>
         <ItemData ItemOID="DM.COMPLT8" Value="Y"/>
         <ItemData ItemOID="DM.EFFICACY" Value="Y"/>
         <ItemData ItemOID="DM.ITT" Value="Y"/>
         <ItemData ItemOID="DM.SAFETY" Value="Y"/>
      </ItemGroupData>
      <ItemGroupData data:ItemGroupDataSeq="32" ItemGroupOID="DM">
         <ItemData ItemOID="DM.STUDYID" Value="CDISCPILOT01"/>
         <ItemData ItemOID="DM.DOMAIN" Value="DM"/>
         <ItemData ItemOID="DM.USUBJID" Value="01-701-1302"/>
         <ItemData ItemOID="DM.SUBJID" Value="1302"/>
         <ItemData ItemOID="DM.RFSTDTC" Value="2013-08-29"/>
         <ItemData ItemOID="DM.RFENDTC" Value="2013-11-05"/>
         <ItemData ItemOID="DM.RFXSTDTC" Value="2013-08-29"/>
         <ItemData ItemOID="DM.RFXENDTC" Value="2013-11-05"/>
         <ItemData ItemOID="DM.RFPENDTC" Value="2014-02-13"/>
         <ItemData ItemOID="DM.SITEID" Value="701"/>
         <ItemData ItemOID="DM.AGE" Value="61"/>
         <ItemData ItemOID="DM.AGEU" Value="YEARS"/>
         <ItemData ItemOID="DM.SEX" Value="M"/>
         <ItemData ItemOID="DM.RACE" Value="WHITE"/>
         <ItemData ItemOID="DM.ETHNIC" Value="NOT HISPANIC OR LATINO"/>
         <ItemData ItemOID="DM.ARMCD" Value="Xan_Hi"/>
         <ItemData ItemOID="DM.ARM" Value="Xanomeline High Dose"/>
         <ItemData ItemOID="DM.ACTARMCD" Value="Xan_Hi"/>
         <ItemData ItemOID="DM.ACTARM" Value="Xanomeline High Dose"/>
         <ItemData ItemOID="DM.COUNTRY" Value="USA"/>
         <ItemData ItemOID="DM.DMDTC" Value="2013-08-20"/>
         <ItemData ItemOID="DM.DMDY" Value="-9"/>
         <ItemData ItemOID="DM.COMPLT8" Value="Y"/>
         <ItemData ItemOID="DM.EFFICACY" Value="Y"/>
         <ItemData ItemOID="DM.ITT" Value="Y"/>
         <ItemData ItemOID="DM.SAFETY" Value="Y"/>
      </ItemGroupData>
      <ItemGroupData data:ItemGroupDataSeq="33" ItemGroupOID="DM">
         <ItemData ItemOID="DM.STUDYID" Value="CDISCPILOT01"/>
         <ItemData ItemOID="DM.DOMAIN" Value="DM"/>
         <ItemData ItemOID="DM.USUBJID" Value="01-701-1307"/>
         <ItemData ItemOID="DM.SUBJID" Value="1307"/>
         <ItemData ItemOID="DM.RFPENDTC" Value="2014-01-02"/>
         <ItemData ItemOID="DM.SITEID" Value="701"/>
         <ItemData ItemOID="DM.AGE" Value="80"/>
         <ItemData ItemOID="DM.AGEU" Value="YEARS"/>
         <ItemData ItemOID="DM.SEX" Value="F"/>
         <ItemData ItemOID="DM.RACE" Value="WHITE"/>
         <ItemData ItemOID="DM.ETHNIC" Value="NOT HISPANIC OR LATINO"/>
         <ItemData ItemOID="DM.ARMCD" Value="Scrnfail"/>
         <ItemData ItemOID="DM.ARM" Value="Screen Failure"/>
         <ItemData ItemOID="DM.ACTARMCD" Value="Scrnfail"/>
         <ItemData ItemOID="DM.ACTARM" Value="Screen Failure"/>
         <ItemData ItemOID="DM.COUNTRY" Value="USA"/>
         <ItemData ItemOID="DM.DMDTC" Value="2013-12-08"/>
      </ItemGroupData>
      <ItemGroupData data:ItemGroupDataSeq="34" ItemGroupOID="DM">
         <ItemData ItemOID="DM.STUDYID" Value="CDISCPILOT01"/>
         <ItemData ItemOID="DM.DOMAIN" Value="DM"/>
         <ItemData ItemOID="DM.USUBJID" Value="01-701-1317"/>
         <ItemData ItemOID="DM.SUBJID" Value="1317"/>
         <ItemData ItemOID="DM.RFSTDTC" Value="2014-05-22"/>
         <ItemData ItemOID="DM.RFENDTC" Value="2014-11-20"/>
         <ItemData ItemOID="DM.RFXSTDTC" Value="2014-05-22"/>
         <ItemData ItemOID="DM.RFXENDTC" Value="2014-11-20"/>
         <ItemData ItemOID="DM.RFPENDTC" Value="2014-11-20T11:54"/>
         <ItemData ItemOID="DM.SITEID" Value="701"/>
         <ItemData ItemOID="DM.AGE" Value="68"/>
         <ItemData ItemOID="DM.AGEU" Value="YEARS"/>
         <ItemData ItemOID="DM.SEX" Value="M"/>
         <ItemData ItemOID="DM.RACE" Value="WHITE"/>
         <ItemData ItemOID="DM.ETHNIC" Value="NOT HISPANIC OR LATINO"/>
         <ItemData ItemOID="DM.ARMCD" Value="Xan_Lo"/>
         <ItemData ItemOID="DM.ARM" Value="Xanomeline Low Dose"/>
         <ItemData ItemOID="DM.ACTARMCD" Value="Xan_Lo"/>
         <ItemData ItemOID="DM.ACTARM" Value="Xanomeline Low Dose"/>
         <ItemData ItemOID="DM.COUNTRY" Value="USA"/>
         <ItemData ItemOID="DM.DMDTC" Value="2014-05-10"/>
         <ItemData ItemOID="DM.DMDY" Value="-12"/>
         <ItemData ItemOID="DM.COMPLT16" Value="Y"/>
         <ItemData ItemOID="DM.COMPLT24" Value="Y"/>
         <ItemData ItemOID="DM.COMPLT8" Value="Y"/>
         <ItemData ItemOID="DM.EFFICACY" Value="Y"/>
         <ItemData ItemOID="DM.ITT" Value="Y"/>
         <ItemData ItemOID="DM.SAFETY" Value="Y"/>
      </ItemGroupData>
      <ItemGroupData data:ItemGroupDataSeq="35" ItemGroupOID="DM">
         <ItemData ItemOID="DM.STUDYID" Value="CDISCPILOT01"/>
         <ItemData ItemOID="DM.DOMAIN" Value="DM"/>
         <ItemData ItemOID="DM.USUBJID" Value="01-701-1324"/>
         <ItemData ItemOID="DM.SUBJID" Value="1324"/>
         <ItemData ItemOID="DM.RFSTDTC" Value="2012-10-02"/>
         <ItemData ItemOID="DM.RFENDTC" Value="2013-04-02"/>
         <ItemData ItemOID="DM.RFXSTDTC" Value="2012-10-02"/>
         <ItemData ItemOID="DM.RFXENDTC" Value="2013-04-02"/>
         <ItemData ItemOID="DM.RFPENDTC" Value="2013-04-02T11:35"/>
         <ItemData ItemOID="DM.SITEID" Value="701"/>
         <ItemData ItemOID="DM.AGE" Value="79"/>
         <ItemData ItemOID="DM.AGEU" Value="YEARS"/>
         <ItemData ItemOID="DM.SEX" Value="M"/>
         <ItemData ItemOID="DM.RACE" Value="WHITE"/>
         <ItemData ItemOID="DM.ETHNIC" Value="NOT HISPANIC OR LATINO"/>
         <ItemData ItemOID="DM.ARMCD" Value="Xan_Lo"/>
         <ItemData ItemOID="DM.ARM" Value="Xanomeline Low Dose"/>
         <ItemData ItemOID="DM.ACTARMCD" Value="Xan_Lo"/>
         <ItemData ItemOID="DM.ACTARM" Value="Xanomeline Low Dose"/>
         <ItemData ItemOID="DM.COUNTRY" Value="USA"/>
         <ItemData ItemOID="DM.DMDTC" Value="2012-09-16"/>
         <ItemData ItemOID="DM.DMDY" Value="-16"/>
         <ItemData ItemOID="DM.COMPLT16" Value="Y"/>
         <ItemData ItemOID="DM.COMPLT24" Value="Y"/>
         <ItemData ItemOID="DM.COMPLT8" Value="Y"/>
         <ItemData ItemOID="DM.EFFICACY" Value="Y"/>
         <ItemData ItemOID="DM.ITT" Value="Y"/>
         <ItemData ItemOID="DM.SAFETY" Value="Y"/>
      </ItemGroupData>
      <ItemGroupData data:ItemGroupDataSeq="36" ItemGroupOID="DM">
         <ItemData ItemOID="DM.STUDYID" Value="CDISCPILOT01"/>
         <ItemData ItemOID="DM.DOMAIN" Value="DM"/>
         <ItemData ItemOID="DM.USUBJID" Value="01-701-1341"/>
         <ItemData ItemOID="DM.SUBJID" Value="1341"/>
         <ItemData ItemOID="DM.RFSTDTC" Value="2013-01-05"/>
         <ItemData ItemOID="DM.RFENDTC" Value="2013-02-07"/>
         <ItemData ItemOID="DM.RFXSTDTC" Value="2013-01-05"/>
         <ItemData ItemOID="DM.RFXENDTC" Value="2013-01-26"/>
         <ItemData ItemOID="DM.RFPENDTC" Value="2013-02-21"/>
         <ItemData ItemOID="DM.SITEID" Value="701"/>
         <ItemData ItemOID="DM.AGE" Value="51"/>
         <ItemData ItemOID="DM.AGEU" Value="YEARS"/>
         <ItemData ItemOID="DM.SEX" Value="M"/>
         <ItemData ItemOID="DM.RACE" Value="WHITE"/>
         <ItemData ItemOID="DM.ETHNIC" Value="NOT HISPANIC OR LATINO"/>
         <ItemData ItemOID="DM.ARMCD" Value="Xan_Lo"/>
         <ItemData ItemOID="DM.ARM" Value="Xanomeline Low Dose"/>
         <ItemData ItemOID="DM.ACTARMCD" Value="Xan_Lo"/>
         <ItemData ItemOID="DM.ACTARM" Value="Xanomeline Low Dose"/>
         <ItemData ItemOID="DM.COUNTRY" Value="USA"/>
         <ItemData ItemOID="DM.DMDTC" Value="2012-12-22"/>
         <ItemData ItemOID="DM.DMDY" Value="-14"/>
         <ItemData ItemOID="DM.EFFICACY" Value="Y"/>
         <ItemData ItemOID="DM.ITT" Value="Y"/>
         <ItemData ItemOID="DM.SAFETY" Value="Y"/>
      </ItemGroupData>
      <ItemGroupData data:ItemGroupDataSeq="37" ItemGroupOID="DM">
         <ItemData ItemOID="DM.STUDYID" Value="CDISCPILOT01"/>
         <ItemData ItemOID="DM.DOMAIN" Value="DM"/>
         <ItemData ItemOID="DM.USUBJID" Value="01-701-1345"/>
         <ItemData ItemOID="DM.SUBJID" Value="1345"/>
         <ItemData ItemOID="DM.RFSTDTC" Value="2013-10-08"/>
         <ItemData ItemOID="DM.RFENDTC" Value="2014-03-18"/>
         <ItemData ItemOID="DM.RFXSTDTC" Value="2013-10-08"/>
         <ItemData ItemOID="DM.RFXENDTC" Value="2014-03-18"/>
         <ItemData ItemOID="DM.RFPENDTC" Value="2014-03-18T14:12"/>
         <ItemData ItemOID="DM.SITEID" Value="701"/>
         <ItemData ItemOID="DM.AGE" Value="63"/>
         <ItemData ItemOID="DM.AGEU" Value="YEARS"/>
         <ItemData ItemOID="DM.SEX" Value="F"/>
         <ItemData ItemOID="DM.RACE" Value="WHITE"/>
         <ItemData ItemOID="DM.ETHNIC" Value="NOT HISPANIC OR LATINO"/>
         <ItemData ItemOID="DM.ARMCD" Value="Pbo"/>
         <ItemData ItemOID="DM.ARM" Value="Placebo"/>
         <ItemData ItemOID="DM.ACTARMCD" Value="Pbo"/>
         <ItemData ItemOID="DM.ACTARM" Value="Placebo"/>
         <ItemData ItemOID="DM.COUNTRY" Value="USA"/>
         <ItemData ItemOID="DM.DMDTC" Value="2013-10-01"/>
         <ItemData ItemOID="DM.DMDY" Value="-7"/>
         <ItemData ItemOID="DM.COMPLT16" Value="Y"/>
         <ItemData ItemOID="DM.COMPLT24" Value="Y"/>
         <ItemData ItemOID="DM.COMPLT8" Value="Y"/>
         <ItemData ItemOID="DM.EFFICACY" Value="Y"/>
         <ItemData ItemOID="DM.ITT" Value="Y"/>
         <ItemData ItemOID="DM.SAFETY" Value="Y"/>
      </ItemGroupData>
      <ItemGroupData data:ItemGroupDataSeq="38" ItemGroupOID="DM">
         <ItemData ItemOID="DM.STUDYID" Value="CDISCPILOT01"/>
         <ItemData ItemOID="DM.DOMAIN" Value="DM"/>
         <ItemData ItemOID="DM.USUBJID" Value="01-701-1356"/>
         <ItemData ItemOID="DM.SUBJID" Value="1356"/>
         <ItemData ItemOID="DM.RFPENDTC" Value="2014-05-28"/>
         <ItemData ItemOID="DM.SITEID" Value="701"/>
         <ItemData ItemOID="DM.AGE" Value="54"/>
         <ItemData ItemOID="DM.AGEU" Value="YEARS"/>
         <ItemData ItemOID="DM.SEX" Value="F"/>
         <ItemData ItemOID="DM.RACE" Value="WHITE"/>
         <ItemData ItemOID="DM.ETHNIC" Value="HISPANIC OR LATINO"/>
         <ItemData ItemOID="DM.ARMCD" Value="Scrnfail"/>
         <ItemData ItemOID="DM.ARM" Value="Screen Failure"/>
         <ItemData ItemOID="DM.ACTARMCD" Value="Scrnfail"/>
         <ItemData ItemOID="DM.ACTARM" Value="Screen Failure"/>
         <ItemData ItemOID="DM.COUNTRY" Value="USA"/>
         <ItemData ItemOID="DM.DMDTC" Value="2014-04-01"/>
      </ItemGroupData>
      <ItemGroupData data:ItemGroupDataSeq="39" ItemGroupOID="DM">
         <ItemData ItemOID="DM.STUDYID" Value="CDISCPILOT01"/>
         <ItemData ItemOID="DM.DOMAIN" Value="DM"/>
         <ItemData ItemOID="DM.USUBJID" Value="01-701-1360"/>
         <ItemData ItemOID="DM.SUBJID" Value="1360"/>
         <ItemData ItemOID="DM.RFSTDTC" Value="2013-07-31"/>
         <ItemData ItemOID="DM.RFENDTC" Value="2013-08-14"/>
         <ItemData ItemOID="DM.RFXSTDTC" Value="2013-07-31"/>
         <ItemData ItemOID="DM.RFXENDTC" Value="2013-08-05"/>
         <ItemData ItemOID="DM.RFPENDTC" Value="2014-02-11"/>
         <ItemData ItemOID="DM.SITEID" Value="701"/>
         <ItemData ItemOID="DM.AGE" Value="67"/>
         <ItemData ItemOID="DM.AGEU" Value="YEARS"/>
         <ItemData ItemOID="DM.SEX" Value="M"/>
         <ItemData ItemOID="DM.RACE" Value="WHITE"/>
         <ItemData ItemOID="DM.ETHNIC" Value="NOT HISPANIC OR LATINO"/>
         <ItemData ItemOID="DM.ARMCD" Value="Xan_Hi"/>
         <ItemData ItemOID="DM.ARM" Value="Xanomeline High Dose"/>
         <ItemData ItemOID="DM.ACTARMCD" Value="Xan_Lo"/>
         <ItemData ItemOID="DM.ACTARM" Value="Xanomeline Low Dose"/>
         <ItemData ItemOID="DM.COUNTRY" Value="USA"/>
         <ItemData ItemOID="DM.DMDTC" Value="2013-07-24"/>
         <ItemData ItemOID="DM.DMDY" Value="-7"/>
         <ItemData ItemOID="DM.EFFICACY" Value="Y"/>
         <ItemData ItemOID="DM.ITT" Value="Y"/>
         <ItemData ItemOID="DM.SAFETY" Value="Y"/>
      </ItemGroupData>
      <ItemGroupData data:ItemGroupDataSeq="40" ItemGroupOID="DM">
         <ItemData ItemOID="DM.STUDYID" Value="CDISCPILOT01"/>
         <ItemData ItemOID="DM.DOMAIN" Value="DM"/>
         <ItemData ItemOID="DM.USUBJID" Value="01-701-1363"/>
         <ItemData ItemOID="DM.SUBJID" Value="1363"/>
         <ItemData ItemOID="DM.RFSTDTC" Value="2013-05-30"/>
         <ItemData ItemOID="DM.RFENDTC" Value="2013-11-27"/>
         <ItemData ItemOID="DM.RFXSTDTC" Value="2013-05-30"/>
         <ItemData ItemOID="DM.RFXENDTC" Value="2013-11-27"/>
         <ItemData ItemOID="DM.RFPENDTC" Value="2013-11-27T10:00"/>
         <ItemData ItemOID="DM.SITEID" Value="701"/>
         <ItemData ItemOID="DM.AGE" Value="81"/>
         <ItemData ItemOID="DM.AGEU" Value="YEARS"/>
         <ItemData ItemOID="DM.SEX" Value="F"/>
         <ItemData ItemOID="DM.RACE" Value="BLACK OR AFRICAN AMERICAN"/>
         <ItemData ItemOID="DM.ETHNIC" Value="NOT HISPANIC OR LATINO"/>
         <ItemData ItemOID="DM.ARMCD" Value="Pbo"/>
         <ItemData ItemOID="DM.ARM" Value="Placebo"/>
         <ItemData ItemOID="DM.ACTARMCD" Value="Pbo"/>
         <ItemData ItemOID="DM.ACTARM" Value="Placebo"/>
         <ItemData ItemOID="DM.COUNTRY" Value="USA"/>
         <ItemData ItemOID="DM.DMDTC" Value="2013-05-20"/>
         <ItemData ItemOID="DM.DMDY" Value="-10"/>
         <ItemData ItemOID="DM.COMPLT16" Value="Y"/>
         <ItemData ItemOID="DM.COMPLT24" Value="Y"/>
         <ItemData ItemOID="DM.COMPLT8" Value="Y"/>
         <ItemData ItemOID="DM.EFFICACY" Value="Y"/>
         <ItemData ItemOID="DM.ITT" Value="Y"/>
         <ItemData ItemOID="DM.SAFETY" Value="Y"/>
      </ItemGroupData>
      <ItemGroupData data:ItemGroupDataSeq="41" ItemGroupOID="DM">
         <ItemData ItemOID="DM.STUDYID" Value="CDISCPILOT01"/>
         <ItemData ItemOID="DM.DOMAIN" Value="DM"/>
         <ItemData ItemOID="DM.USUBJID" Value="01-701-1369"/>
         <ItemData ItemOID="DM.SUBJID" Value="1369"/>
         <ItemData ItemOID="DM.RFPENDTC" Value="2013-09-30"/>
         <ItemData ItemOID="DM.SITEID" Value="701"/>
         <ItemData ItemOID="DM.AGE" Value="74"/>
         <ItemData ItemOID="DM.AGEU" Value="YEARS"/>
         <ItemData ItemOID="DM.SEX" Value="M"/>
         <ItemData ItemOID="DM.RACE" Value="WHITE"/>
         <ItemData ItemOID="DM.ETHNIC" Value="NOT HISPANIC OR LATINO"/>
         <ItemData ItemOID="DM.ARMCD" Value="Scrnfail"/>
         <ItemData ItemOID="DM.ARM" Value="Screen Failure"/>
         <ItemData ItemOID="DM.ACTARMCD" Value="Scrnfail"/>
         <ItemData ItemOID="DM.ACTARM" Value="Screen Failure"/>
         <ItemData ItemOID="DM.COUNTRY" Value="USA"/>
         <ItemData ItemOID="DM.DMDTC" Value="2013-09-18"/>
      </ItemGroupData>
      <ItemGroupData data:ItemGroupDataSeq="42" ItemGroupOID="DM">
         <ItemData ItemOID="DM.STUDYID" Value="CDISCPILOT01"/>
         <ItemData ItemOID="DM.DOMAIN" Value="DM"/>
         <ItemData ItemOID="DM.USUBJID" Value="01-701-1383"/>
         <ItemData ItemOID="DM.SUBJID" Value="1383"/>
         <ItemData ItemOID="DM.RFSTDTC" Value="2013-02-04"/>
         <ItemData ItemOID="DM.RFENDTC" Value="2013-08-06"/>
         <ItemData ItemOID="DM.RFXSTDTC" Value="2013-02-04"/>
         <ItemData ItemOID="DM.RFXENDTC" Value="2013-08-06"/>
         <ItemData ItemOID="DM.RFPENDTC" Value="2013-08-06T12:00"/>
         <ItemData ItemOID="DM.SITEID" Value="701"/>
         <ItemData ItemOID="DM.AGE" Value="72"/>
         <ItemData ItemOID="DM.AGEU" Value="YEARS"/>
         <ItemData ItemOID="DM.SEX" Value="F"/>
         <ItemData ItemOID="DM.RACE" Value="WHITE"/>
         <ItemData ItemOID="DM.ETHNIC" Value="NOT HISPANIC OR LATINO"/>
         <ItemData ItemOID="DM.ARMCD" Value="Xan_Hi"/>
         <ItemData ItemOID="DM.ARM" Value="Xanomeline High Dose"/>
         <ItemData ItemOID="DM.ACTARMCD" Value="Xan_Hi"/>
         <ItemData ItemOID="DM.ACTARM" Value="Xanomeline High Dose"/>
         <ItemData ItemOID="DM.COUNTRY" Value="USA"/>
         <ItemData ItemOID="DM.DMDTC" Value="2013-01-22"/>
         <ItemData ItemOID="DM.DMDY" Value="-13"/>
         <ItemData ItemOID="DM.COMPLT16" Value="Y"/>
         <ItemData ItemOID="DM.COMPLT24" Value="Y"/>
         <ItemData ItemOID="DM.COMPLT8" Value="Y"/>
         <ItemData ItemOID="DM.EFFICACY" Value="Y"/>
         <ItemData ItemOID="DM.ITT" Value="Y"/>
         <ItemData ItemOID="DM.SAFETY" Value="Y"/>
      </ItemGroupData>
      <ItemGroupData data:ItemGroupDataSeq="43" ItemGroupOID="DM">
         <ItemData ItemOID="DM.STUDYID" Value="CDISCPILOT01"/>
         <ItemData ItemOID="DM.DOMAIN" Value="DM"/>
         <ItemData ItemOID="DM.USUBJID" Value="01-701-1386"/>
         <ItemData ItemOID="DM.SUBJID" Value="1386"/>
         <ItemData ItemOID="DM.RFPENDTC" Value="2014-01-07"/>
         <ItemData ItemOID="DM.SITEID" Value="701"/>
         <ItemData ItemOID="DM.AGE" Value="71"/>
         <ItemData ItemOID="DM.AGEU" Value="YEARS"/>
         <ItemData ItemOID="DM.SEX" Value="M"/>
         <ItemData ItemOID="DM.RACE" Value="WHITE"/>
         <ItemData ItemOID="DM.ETHNIC" Value="NOT HISPANIC OR LATINO"/>
         <ItemData ItemOID="DM.ARMCD" Value="Scrnfail"/>
         <ItemData ItemOID="DM.ARM" Value="Screen Failure"/>
         <ItemData ItemOID="DM.ACTARMCD" Value="Scrnfail"/>
         <ItemData ItemOID="DM.ACTARM" Value="Screen Failure"/>
         <ItemData ItemOID="DM.COUNTRY" Value="USA"/>
         <ItemData ItemOID="DM.DMDTC" Value="2013-12-28"/>
      </ItemGroupData>
      <ItemGroupData data:ItemGroupDataSeq="44" ItemGroupOID="DM">
         <ItemData ItemOID="DM.STUDYID" Value="CDISCPILOT01"/>
         <ItemData ItemOID="DM.DOMAIN" Value="DM"/>
         <ItemData ItemOID="DM.USUBJID" Value="01-701-1387"/>
         <ItemData ItemOID="DM.SUBJID" Value="1387"/>
         <ItemData ItemOID="DM.RFSTDTC" Value="2014-03-12"/>
         <ItemData ItemOID="DM.RFENDTC" Value="2014-03-25"/>
         <ItemData ItemOID="DM.RFXSTDTC" Value="2014-03-12"/>
         <ItemData ItemOID="DM.RFXENDTC" Value="2014-03-25"/>
         <ItemData ItemOID="DM.RFPENDTC" Value="2014-08-27"/>
         <ItemData ItemOID="DM.SITEID" Value="701"/>
         <ItemData ItemOID="DM.AGE" Value="87"/>
         <ItemData ItemOID="DM.AGEU" Value="YEARS"/>
         <ItemData ItemOID="DM.SEX" Value="F"/>
         <ItemData ItemOID="DM.RACE" Value="WHITE"/>
         <ItemData ItemOID="DM.ETHNIC" Value="NOT HISPANIC OR LATINO"/>
         <ItemData ItemOID="DM.ARMCD" Value="Pbo"/>
         <ItemData ItemOID="DM.ARM" Value="Placebo"/>
         <ItemData ItemOID="DM.ACTARMCD" Value="Pbo"/>
         <ItemData ItemOID="DM.ACTARM" Value="Placebo"/>
         <ItemData ItemOID="DM.COUNTRY" Value="USA"/>
         <ItemData ItemOID="DM.DMDTC" Value="2014-02-23"/>
         <ItemData ItemOID="DM.DMDY" Value="-17"/>
         <ItemData ItemOID="DM.EFFICACY" Value="Y"/>
         <ItemData ItemOID="DM.ITT" Value="Y"/>
         <ItemData ItemOID="DM.SAFETY" Value="Y"/>
      </ItemGroupData>
      <ItemGroupData data:ItemGroupDataSeq="45" ItemGroupOID="DM">
         <ItemData ItemOID="DM.STUDYID" Value="CDISCPILOT01"/>
         <ItemData ItemOID="DM.DOMAIN" Value="DM"/>
         <ItemData ItemOID="DM.USUBJID" Value="01-701-1392"/>
         <ItemData ItemOID="DM.SUBJID" Value="1392"/>
         <ItemData ItemOID="DM.RFSTDTC" Value="2012-10-28"/>
         <ItemData ItemOID="DM.RFENDTC" Value="2013-04-28"/>
         <ItemData ItemOID="DM.RFXSTDTC" Value="2012-10-28"/>
         <ItemData ItemOID="DM.RFXENDTC" Value="2013-04-28"/>
         <ItemData ItemOID="DM.RFPENDTC" Value="2013-04-28T11:30"/>
         <ItemData ItemOID="DM.SITEID" Value="701"/>
         <ItemData ItemOID="DM.AGE" Value="78"/>
         <ItemData ItemOID="DM.AGEU" Value="YEARS"/>
         <ItemData ItemOID="DM.SEX" Value="M"/>
         <ItemData ItemOID="DM.RACE" Value="WHITE"/>
         <ItemData ItemOID="DM.ETHNIC" Value="NOT HISPANIC OR LATINO"/>
         <ItemData ItemOID="DM.ARMCD" Value="Pbo"/>
         <ItemData ItemOID="DM.ARM" Value="Placebo"/>
         <ItemData ItemOID="DM.ACTARMCD" Value="Pbo"/>
         <ItemData ItemOID="DM.ACTARM" Value="Placebo"/>
         <ItemData ItemOID="DM.COUNTRY" Value="USA"/>
         <ItemData ItemOID="DM.DMDTC" Value="2012-10-17"/>
         <ItemData ItemOID="DM.DMDY" Value="-11"/>
         <ItemData ItemOID="DM.COMPLT16" Value="Y"/>
         <ItemData ItemOID="DM.COMPLT24" Value="Y"/>
         <ItemData ItemOID="DM.COMPLT8" Value="Y"/>
         <ItemData ItemOID="DM.EFFICACY" Value="Y"/>
         <ItemData ItemOID="DM.ITT" Value="Y"/>
         <ItemData ItemOID="DM.SAFETY" Value="Y"/>
      </ItemGroupData>
      <ItemGroupData data:ItemGroupDataSeq="46" ItemGroupOID="DM">
         <ItemData ItemOID="DM.STUDYID" Value="CDISCPILOT01"/>
         <ItemData ItemOID="DM.DOMAIN" Value="DM"/>
         <ItemData ItemOID="DM.USUBJID" Value="01-701-1411"/>
         <ItemData ItemOID="DM.SUBJID" Value="1411"/>
         <ItemData ItemOID="DM.RFPENDTC" Value="2012-11-24"/>
         <ItemData ItemOID="DM.SITEID" Value="701"/>
         <ItemData ItemOID="DM.AGE" Value="76"/>
         <ItemData ItemOID="DM.AGEU" Value="YEARS"/>
         <ItemData ItemOID="DM.SEX" Value="M"/>
         <ItemData ItemOID="DM.RACE" Value="BLACK OR AFRICAN AMERICAN"/>
         <ItemData ItemOID="DM.ETHNIC" Value="NOT HISPANIC OR LATINO"/>
         <ItemData ItemOID="DM.ARMCD" Value="Scrnfail"/>
         <ItemData ItemOID="DM.ARM" Value="Screen Failure"/>
         <ItemData ItemOID="DM.ACTARMCD" Value="Scrnfail"/>
         <ItemData ItemOID="DM.ACTARM" Value="Screen Failure"/>
         <ItemData ItemOID="DM.COUNTRY" Value="USA"/>
         <ItemData ItemOID="DM.DMDTC" Value="2012-11-14"/>
      </ItemGroupData>
      <ItemGroupData data:ItemGroupDataSeq="47" ItemGroupOID="DM">
         <ItemData ItemOID="DM.STUDYID" Value="CDISCPILOT01"/>
         <ItemData ItemOID="DM.DOMAIN" Value="DM"/>
         <ItemData ItemOID="DM.USUBJID" Value="01-701-1415"/>
         <ItemData ItemOID="DM.SUBJID" Value="1415"/>
         <ItemData ItemOID="DM.RFSTDTC" Value="2013-09-23"/>
         <ItemData ItemOID="DM.RFENDTC" Value="2014-03-24"/>
         <ItemData ItemOID="DM.RFXSTDTC" Value="2013-09-23"/>
         <ItemData ItemOID="DM.RFXENDTC" Value="2014-03-24"/>
         <ItemData ItemOID="DM.RFPENDTC" Value="2014-03-24T12:34"/>
         <ItemData ItemOID="DM.SITEID" Value="701"/>
         <ItemData ItemOID="DM.AGE" Value="85"/>
         <ItemData ItemOID="DM.AGEU" Value="YEARS"/>
         <ItemData ItemOID="DM.SEX" Value="M"/>
         <ItemData ItemOID="DM.RACE" Value="WHITE"/>
         <ItemData ItemOID="DM.ETHNIC" Value="NOT HISPANIC OR LATINO"/>
         <ItemData ItemOID="DM.ARMCD" Value="Pbo"/>
         <ItemData ItemOID="DM.ARM" Value="Placebo"/>
         <ItemData ItemOID="DM.ACTARMCD" Value="Pbo"/>
         <ItemData ItemOID="DM.ACTARM" Value="Placebo"/>
         <ItemData ItemOID="DM.COUNTRY" Value="USA"/>
         <ItemData ItemOID="DM.DMDTC" Value="2013-09-15"/>
         <ItemData ItemOID="DM.DMDY" Value="-8"/>
         <ItemData ItemOID="DM.COMPLT16" Value="Y"/>
         <ItemData ItemOID="DM.COMPLT24" Value="Y"/>
         <ItemData ItemOID="DM.COMPLT8" Value="Y"/>
         <ItemData ItemOID="DM.EFFICACY" Value="Y"/>
         <ItemData ItemOID="DM.ITT" Value="Y"/>
         <ItemData ItemOID="DM.SAFETY" Value="Y"/>
      </ItemGroupData>
      <ItemGroupData data:ItemGroupDataSeq="48" ItemGroupOID="DM">
         <ItemData ItemOID="DM.STUDYID" Value="CDISCPILOT01"/>
         <ItemData ItemOID="DM.DOMAIN" Value="DM"/>
         <ItemData ItemOID="DM.USUBJID" Value="01-701-1429"/>
         <ItemData ItemOID="DM.SUBJID" Value="1429"/>
         <ItemData ItemOID="DM.RFSTDTC" Value="2013-03-19"/>
         <ItemData ItemOID="DM.RFENDTC" Value="2013-04-30"/>
         <ItemData ItemOID="DM.RFXSTDTC" Value="2013-03-19"/>
         <ItemData ItemOID="DM.RFXENDTC" Value="2013-04-30"/>
         <ItemData ItemOID="DM.RFPENDTC" Value="2013-04-30T12:22"/>
         <ItemData ItemOID="DM.SITEID" Value="701"/>
         <ItemData ItemOID="DM.AGE" Value="84"/>
         <ItemData ItemOID="DM.AGEU" Value="YEARS"/>
         <ItemData ItemOID="DM.SEX" Value="F"/>
         <ItemData ItemOID="DM.RACE" Value="WHITE"/>
         <ItemData ItemOID="DM.ETHNIC" Value="NOT HISPANIC OR LATINO"/>
         <ItemData ItemOID="DM.ARMCD" Value="Xan_Lo"/>
         <ItemData ItemOID="DM.ARM" Value="Xanomeline Low Dose"/>
         <ItemData ItemOID="DM.ACTARMCD" Value="Xan_Lo"/>
         <ItemData ItemOID="DM.ACTARM" Value="Xanomeline Low Dose"/>
         <ItemData ItemOID="DM.COUNTRY" Value="USA"/>
         <ItemData ItemOID="DM.DMDTC" Value="2013-02-25"/>
         <ItemData ItemOID="DM.DMDY" Value="-22"/>
         <ItemData ItemOID="DM.EFFICACY" Value="Y"/>
         <ItemData ItemOID="DM.ITT" Value="Y"/>
         <ItemData ItemOID="DM.SAFETY" Value="Y"/>
      </ItemGroupData>
      <ItemGroupData data:ItemGroupDataSeq="49" ItemGroupOID="DM">
         <ItemData ItemOID="DM.STUDYID" Value="CDISCPILOT01"/>
         <ItemData ItemOID="DM.DOMAIN" Value="DM"/>
         <ItemData ItemOID="DM.USUBJID" Value="01-701-1440"/>
         <ItemData ItemOID="DM.SUBJID" Value="1440"/>
         <ItemData ItemOID="DM.RFSTDTC" Value="2013-08-08"/>
         <ItemData ItemOID="DM.RFENDTC" Value="2014-02-05"/>
         <ItemData ItemOID="DM.RFXSTDTC" Value="2013-08-08"/>
         <ItemData ItemOID="DM.RFXENDTC" Value="2014-02-05"/>
         <ItemData ItemOID="DM.RFPENDTC" Value="2014-02-05T11:25"/>
         <ItemData ItemOID="DM.SITEID" Value="701"/>
         <ItemData ItemOID="DM.AGE" Value="70"/>
         <ItemData ItemOID="DM.AGEU" Value="YEARS"/>
         <ItemData ItemOID="DM.SEX" Value="M"/>
         <ItemData ItemOID="DM.RACE" Value="WHITE"/>
         <ItemData ItemOID="DM.ETHNIC" Value="NOT HISPANIC OR LATINO"/>
         <ItemData ItemOID="DM.ARMCD" Value="Pbo"/>
         <ItemData ItemOID="DM.ARM" Value="Placebo"/>
         <ItemData ItemOID="DM.ACTARMCD" Value="Pbo"/>
         <ItemData ItemOID="DM.ACTARM" Value="Placebo"/>
         <ItemData ItemOID="DM.COUNTRY" Value="USA"/>
         <ItemData ItemOID="DM.DMDTC" Value="2013-07-24"/>
         <ItemData ItemOID="DM.DMDY" Value="-15"/>
         <ItemData ItemOID="DM.COMPLT16" Value="Y"/>
         <ItemData ItemOID="DM.COMPLT24" Value="Y"/>
         <ItemData ItemOID="DM.COMPLT8" Value="Y"/>
         <ItemData ItemOID="DM.EFFICACY" Value="Y"/>
         <ItemData ItemOID="DM.ITT" Value="Y"/>
         <ItemData ItemOID="DM.SAFETY" Value="Y"/>
      </ItemGroupData>
      <ItemGroupData data:ItemGroupDataSeq="50" ItemGroupOID="DM">
         <ItemData ItemOID="DM.STUDYID" Value="CDISCPILOT01"/>
         <ItemData ItemOID="DM.DOMAIN" Value="DM"/>
         <ItemData ItemOID="DM.USUBJID" Value="01-701-1442"/>
         <ItemData ItemOID="DM.SUBJID" Value="1442"/>
         <ItemData ItemOID="DM.RFSTDTC" Value="2013-10-26"/>
         <ItemData ItemOID="DM.RFENDTC" Value="2014-04-26"/>
         <ItemData ItemOID="DM.RFXSTDTC" Value="2013-10-26"/>
         <ItemData ItemOID="DM.RFXENDTC" Value="2014-04-26"/>
         <ItemData ItemOID="DM.RFPENDTC" Value="2014-04-26T10:00"/>
         <ItemData ItemOID="DM.SITEID" Value="701"/>
         <ItemData ItemOID="DM.AGE" Value="57"/>
         <ItemData ItemOID="DM.AGEU" Value="YEARS"/>
         <ItemData ItemOID="DM.SEX" Value="F"/>
         <ItemData ItemOID="DM.RACE" Value="BLACK OR AFRICAN AMERICAN"/>
         <ItemData ItemOID="DM.ETHNIC" Value="NOT HISPANIC OR LATINO"/>
         <ItemData ItemOID="DM.ARMCD" Value="Xan_Lo"/>
         <ItemData ItemOID="DM.ARM" Value="Xanomeline Low Dose"/>
         <ItemData ItemOID="DM.ACTARMCD" Value="Xan_Lo"/>
         <ItemData ItemOID="DM.ACTARM" Value="Xanomeline Low Dose"/>
         <ItemData ItemOID="DM.COUNTRY" Value="USA"/>
         <ItemData ItemOID="DM.DMDTC" Value="2013-10-17"/>
         <ItemData ItemOID="DM.DMDY" Value="-9"/>
         <ItemData ItemOID="DM.COMPLT16" Value="Y"/>
         <ItemData ItemOID="DM.COMPLT24" Value="Y"/>
         <ItemData ItemOID="DM.COMPLT8" Value="Y"/>
         <ItemData ItemOID="DM.EFFICACY" Value="Y"/>
         <ItemData ItemOID="DM.ITT" Value="Y"/>
         <ItemData ItemOID="DM.SAFETY" Value="Y"/>
      </ItemGroupData>
      <ItemGroupData data:ItemGroupDataSeq="51" ItemGroupOID="DM">
         <ItemData ItemOID="DM.STUDYID" Value="CDISCPILOT01"/>
         <ItemData ItemOID="DM.DOMAIN" Value="DM"/>
         <ItemData ItemOID="DM.USUBJID" Value="01-701-1444"/>
         <ItemData ItemOID="DM.SUBJID" Value="1444"/>
         <ItemData ItemOID="DM.RFSTDTC" Value="2013-01-05"/>
         <ItemData ItemOID="DM.RFENDTC" Value="2013-02-13"/>
         <ItemData ItemOID="DM.RFXSTDTC" Value="2013-01-05"/>
         <ItemData ItemOID="DM.RFXENDTC" Value="2013-02-12"/>
         <ItemData ItemOID="DM.RFPENDTC" Value="2013-06-20"/>
         <ItemData ItemOID="DM.SITEID" Value="701"/>
         <ItemData ItemOID="DM.AGE" Value="63"/>
         <ItemData ItemOID="DM.AGEU" Value="YEARS"/>
         <ItemData ItemOID="DM.SEX" Value="M"/>
         <ItemData ItemOID="DM.RACE" Value="WHITE"/>
         <ItemData ItemOID="DM.ETHNIC" Value="HISPANIC OR LATINO"/>
         <ItemData ItemOID="DM.ARMCD" Value="Xan_Hi"/>
         <ItemData ItemOID="DM.ARM" Value="Xanomeline High Dose"/>
         <ItemData ItemOID="DM.ACTARMCD" Value="Xan_Hi"/>
         <ItemData ItemOID="DM.ACTARM" Value="Xanomeline High Dose"/>
         <ItemData ItemOID="DM.COUNTRY" Value="USA"/>
         <ItemData ItemOID="DM.DMDTC" Value="2012-12-31"/>
         <ItemData ItemOID="DM.DMDY" Value="-5"/>
         <ItemData ItemOID="DM.EFFICACY" Value="Y"/>
         <ItemData ItemOID="DM.ITT" Value="Y"/>
         <ItemData ItemOID="DM.SAFETY" Value="Y"/>
      </ItemGroupData>
      <ItemGroupData data:ItemGroupDataSeq="52" ItemGroupOID="DM">
         <ItemData ItemOID="DM.STUDYID" Value="CDISCPILOT01"/>
         <ItemData ItemOID="DM.DOMAIN" Value="DM"/>
         <ItemData ItemOID="DM.USUBJID" Value="01-702-1082"/>
         <ItemData ItemOID="DM.SUBJID" Value="1082"/>
         <ItemData ItemOID="DM.RFSTDTC" Value="2013-07-26"/>
         <ItemData ItemOID="DM.RFENDTC" Value="2013-11-17"/>
         <ItemData ItemOID="DM.RFXSTDTC" Value="2013-07-26"/>
         <ItemData ItemOID="DM.RFXENDTC" Value="2013-10-13"/>
         <ItemData ItemOID="DM.RFPENDTC" Value="2013-11-17T12:20"/>
         <ItemData ItemOID="DM.SITEID" Value="702"/>
         <ItemData ItemOID="DM.AGE" Value="84"/>
         <ItemData ItemOID="DM.AGEU" Value="YEARS"/>
         <ItemData ItemOID="DM.SEX" Value="F"/>
         <ItemData ItemOID="DM.RACE" Value="WHITE"/>
         <ItemData ItemOID="DM.ETHNIC" Value="NOT HISPANIC OR LATINO"/>
         <ItemData ItemOID="DM.ARMCD" Value="Xan_Lo"/>
         <ItemData ItemOID="DM.ARM" Value="Xanomeline Low Dose"/>
         <ItemData ItemOID="DM.ACTARMCD" Value="Xan_Lo"/>
         <ItemData ItemOID="DM.ACTARM" Value="Xanomeline Low Dose"/>
         <ItemData ItemOID="DM.COUNTRY" Value="USA"/>
         <ItemData ItemOID="DM.DMDTC" Value="2013-07-03"/>
         <ItemData ItemOID="DM.DMDY" Value="-23"/>
         <ItemData ItemOID="DM.COMPLT8" Value="Y"/>
         <ItemData ItemOID="DM.EFFICACY" Value="Y"/>
         <ItemData ItemOID="DM.ITT" Value="Y"/>
         <ItemData ItemOID="DM.SAFETY" Value="Y"/>
      </ItemGroupData>
      <ItemGroupData data:ItemGroupDataSeq="53" ItemGroupOID="DM">
         <ItemData ItemOID="DM.STUDYID" Value="CDISCPILOT01"/>
         <ItemData ItemOID="DM.DOMAIN" Value="DM"/>
         <ItemData ItemOID="DM.USUBJID" Value="01-703-1042"/>
         <ItemData ItemOID="DM.SUBJID" Value="1042"/>
         <ItemData ItemOID="DM.RFSTDTC" Value="2013-03-02"/>
         <ItemData ItemOID="DM.RFENDTC" Value="2013-08-31"/>
         <ItemData ItemOID="DM.RFXSTDTC" Value="2013-03-02"/>
         <ItemData ItemOID="DM.RFXENDTC" Value="2013-08-31"/>
         <ItemData ItemOID="DM.RFPENDTC" Value="2013-08-31T11:00"/>
         <ItemData ItemOID="DM.SITEID" Value="703"/>
         <ItemData ItemOID="DM.AGE" Value="64"/>
         <ItemData ItemOID="DM.AGEU" Value="YEARS"/>
         <ItemData ItemOID="DM.SEX" Value="M"/>
         <ItemData ItemOID="DM.RACE" Value="WHITE"/>
         <ItemData ItemOID="DM.ETHNIC" Value="NOT HISPANIC OR LATINO"/>
         <ItemData ItemOID="DM.ARMCD" Value="Pbo"/>
         <ItemData ItemOID="DM.ARM" Value="Placebo"/>
         <ItemData ItemOID="DM.ACTARMCD" Value="Pbo"/>
         <ItemData ItemOID="DM.ACTARM" Value="Placebo"/>
         <ItemData ItemOID="DM.COUNTRY" Value="USA"/>
         <ItemData ItemOID="DM.DMDTC" Value="2013-02-23"/>
         <ItemData ItemOID="DM.DMDY" Value="-7"/>
         <ItemData ItemOID="DM.COMPLT16" Value="Y"/>
         <ItemData ItemOID="DM.COMPLT24" Value="Y"/>
         <ItemData ItemOID="DM.COMPLT8" Value="Y"/>
         <ItemData ItemOID="DM.EFFICACY" Value="Y"/>
         <ItemData ItemOID="DM.ITT" Value="Y"/>
         <ItemData ItemOID="DM.SAFETY" Value="Y"/>
      </ItemGroupData>
      <ItemGroupData data:ItemGroupDataSeq="54" ItemGroupOID="DM">
         <ItemData ItemOID="DM.STUDYID" Value="CDISCPILOT01"/>
         <ItemData ItemOID="DM.DOMAIN" Value="DM"/>
         <ItemData ItemOID="DM.USUBJID" Value="01-703-1076"/>
         <ItemData ItemOID="DM.SUBJID" Value="1076"/>
         <ItemData ItemOID="DM.RFSTDTC" Value="2013-10-25"/>
         <ItemData ItemOID="DM.RFENDTC" Value="2013-12-24"/>
         <ItemData ItemOID="DM.RFXSTDTC" Value="2013-10-25"/>
         <ItemData ItemOID="DM.RFXENDTC" Value="2013-12-24"/>
         <ItemData ItemOID="DM.RFPENDTC" Value="2014-01-21"/>
         <ItemData ItemOID="DM.SITEID" Value="703"/>
         <ItemData ItemOID="DM.AGE" Value="69"/>
         <ItemData ItemOID="DM.AGEU" Value="YEARS"/>
         <ItemData ItemOID="DM.SEX" Value="M"/>
         <ItemData ItemOID="DM.RACE" Value="WHITE"/>
         <ItemData ItemOID="DM.ETHNIC" Value="NOT HISPANIC OR LATINO"/>
         <ItemData ItemOID="DM.ARMCD" Value="Xan_Hi"/>
         <ItemData ItemOID="DM.ARM" Value="Xanomeline High Dose"/>
         <ItemData ItemOID="DM.ACTARMCD" Value="Xan_Hi"/>
         <ItemData ItemOID="DM.ACTARM" Value="Xanomeline High Dose"/>
         <ItemData ItemOID="DM.COUNTRY" Value="USA"/>
         <ItemData ItemOID="DM.DMDTC" Value="2013-10-17"/>
         <ItemData ItemOID="DM.DMDY" Value="-8"/>
         <ItemData ItemOID="DM.COMPLT8" Value="Y"/>
         <ItemData ItemOID="DM.EFFICACY" Value="Y"/>
         <ItemData ItemOID="DM.ITT" Value="Y"/>
         <ItemData ItemOID="DM.SAFETY" Value="Y"/>
      </ItemGroupData>
      <ItemGroupData data:ItemGroupDataSeq="55" ItemGroupOID="DM">
         <ItemData ItemOID="DM.STUDYID" Value="CDISCPILOT01"/>
         <ItemData ItemOID="DM.DOMAIN" Value="DM"/>
         <ItemData ItemOID="DM.USUBJID" Value="01-703-1086"/>
         <ItemData ItemOID="DM.SUBJID" Value="1086"/>
         <ItemData ItemOID="DM.RFSTDTC" Value="2012-09-02"/>
         <ItemData ItemOID="DM.RFENDTC" Value="2012-12-24"/>
         <ItemData ItemOID="DM.RFXSTDTC" Value="2012-09-02"/>
         <ItemData ItemOID="DM.RFXENDTC" Value="2012-12-04"/>
         <ItemData ItemOID="DM.RFPENDTC" Value="2013-03-26"/>
         <ItemData ItemOID="DM.SITEID" Value="703"/>
         <ItemData ItemOID="DM.AGE" Value="71"/>
         <ItemData ItemOID="DM.AGEU" Value="YEARS"/>
         <ItemData ItemOID="DM.SEX" Value="M"/>
         <ItemData ItemOID="DM.RACE" Value="WHITE"/>
         <ItemData ItemOID="DM.ETHNIC" Value="NOT HISPANIC OR LATINO"/>
         <ItemData ItemOID="DM.ARMCD" Value="Xan_Lo"/>
         <ItemData ItemOID="DM.ARM" Value="Xanomeline Low Dose"/>
         <ItemData ItemOID="DM.ACTARMCD" Value="Xan_Lo"/>
         <ItemData ItemOID="DM.ACTARM" Value="Xanomeline Low Dose"/>
         <ItemData ItemOID="DM.COUNTRY" Value="USA"/>
         <ItemData ItemOID="DM.DMDTC" Value="2012-08-22"/>
         <ItemData ItemOID="DM.DMDY" Value="-11"/>
         <ItemData ItemOID="DM.COMPLT16" Value="Y"/>
         <ItemData ItemOID="DM.COMPLT8" Value="Y"/>
         <ItemData ItemOID="DM.EFFICACY" Value="Y"/>
         <ItemData ItemOID="DM.ITT" Value="Y"/>
         <ItemData ItemOID="DM.SAFETY" Value="Y"/>
      </ItemGroupData>
      <ItemGroupData data:ItemGroupDataSeq="56" ItemGroupOID="DM">
         <ItemData ItemOID="DM.STUDYID" Value="CDISCPILOT01"/>
         <ItemData ItemOID="DM.DOMAIN" Value="DM"/>
         <ItemData ItemOID="DM.USUBJID" Value="01-703-1096"/>
         <ItemData ItemOID="DM.SUBJID" Value="1096"/>
         <ItemData ItemOID="DM.RFSTDTC" Value="2013-01-25"/>
         <ItemData ItemOID="DM.RFENDTC" Value="2013-03-29"/>
         <ItemData ItemOID="DM.RFXSTDTC" Value="2013-01-25"/>
         <ItemData ItemOID="DM.RFXENDTC" Value="2013-03-16"/>
         <ItemData ItemOID="DM.RFPENDTC" Value="2013-03-29"/>
         <ItemData ItemOID="DM.SITEID" Value="703"/>
         <ItemData ItemOID="DM.AGE" Value="81"/>
         <ItemData ItemOID="DM.AGEU" Value="YEARS"/>
         <ItemData ItemOID="DM.SEX" Value="F"/>
         <ItemData ItemOID="DM.RACE" Value="WHITE"/>
         <ItemData ItemOID="DM.ETHNIC" Value="NOT HISPANIC OR LATINO"/>
         <ItemData ItemOID="DM.ARMCD" Value="Pbo"/>
         <ItemData ItemOID="DM.ARM" Value="Placebo"/>
         <ItemData ItemOID="DM.ACTARMCD" Value="Pbo"/>
         <ItemData ItemOID="DM.ACTARM" Value="Placebo"/>
         <ItemData ItemOID="DM.COUNTRY" Value="USA"/>
         <ItemData ItemOID="DM.DMDTC" Value="2012-12-19"/>
         <ItemData ItemOID="DM.DMDY" Value="-37"/>
         <ItemData ItemOID="DM.ITT" Value="Y"/>
         <ItemData ItemOID="DM.SAFETY" Value="Y"/>
      </ItemGroupData>
      <ItemGroupData data:ItemGroupDataSeq="57" ItemGroupOID="DM">
         <ItemData ItemOID="DM.STUDYID" Value="CDISCPILOT01"/>
         <ItemData ItemOID="DM.DOMAIN" Value="DM"/>
         <ItemData ItemOID="DM.USUBJID" Value="01-703-1100"/>
         <ItemData ItemOID="DM.SUBJID" Value="1100"/>
         <ItemData ItemOID="DM.RFSTDTC" Value="2013-03-13"/>
         <ItemData ItemOID="DM.RFENDTC" Value="2013-09-14"/>
         <ItemData ItemOID="DM.RFXSTDTC" Value="2013-03-13"/>
         <ItemData ItemOID="DM.RFXENDTC" Value="2013-09-14"/>
         <ItemData ItemOID="DM.RFPENDTC" Value="2013-09-14T15:00"/>
         <ItemData ItemOID="DM.SITEID" Value="703"/>
         <ItemData ItemOID="DM.AGE" Value="84"/>
         <ItemData ItemOID="DM.AGEU" Value="YEARS"/>
         <ItemData ItemOID="DM.SEX" Value="F"/>
         <ItemData ItemOID="DM.RACE" Value="WHITE"/>
         <ItemData ItemOID="DM.ETHNIC" Value="NOT HISPANIC OR LATINO"/>
         <ItemData ItemOID="DM.ARMCD" Value="Pbo"/>
         <ItemData ItemOID="DM.ARM" Value="Placebo"/>
         <ItemData ItemOID="DM.ACTARMCD" Value="Pbo"/>
         <ItemData ItemOID="DM.ACTARM" Value="Placebo"/>
         <ItemData ItemOID="DM.COUNTRY" Value="USA"/>
         <ItemData ItemOID="DM.DMDTC" Value="2013-02-28"/>
         <ItemData ItemOID="DM.DMDY" Value="-13"/>
         <ItemData ItemOID="DM.COMPLT16" Value="Y"/>
         <ItemData ItemOID="DM.COMPLT24" Value="Y"/>
         <ItemData ItemOID="DM.COMPLT8" Value="Y"/>
         <ItemData ItemOID="DM.EFFICACY" Value="Y"/>
         <ItemData ItemOID="DM.ITT" Value="Y"/>
         <ItemData ItemOID="DM.SAFETY" Value="Y"/>
      </ItemGroupData>
      <ItemGroupData data:ItemGroupDataSeq="58" ItemGroupOID="DM">
         <ItemData ItemOID="DM.STUDYID" Value="CDISCPILOT01"/>
         <ItemData ItemOID="DM.DOMAIN" Value="DM"/>
         <ItemData ItemOID="DM.USUBJID" Value="01-703-1119"/>
         <ItemData ItemOID="DM.SUBJID" Value="1119"/>
         <ItemData ItemOID="DM.RFSTDTC" Value="2013-02-20"/>
         <ItemData ItemOID="DM.RFENDTC" Value="2013-06-13"/>
         <ItemData ItemOID="DM.RFXSTDTC" Value="2013-02-20"/>
         <ItemData ItemOID="DM.RFXENDTC" Value="2013-06-13"/>
         <ItemData ItemOID="DM.RFPENDTC" Value="2013-08-24"/>
         <ItemData ItemOID="DM.SITEID" Value="703"/>
         <ItemData ItemOID="DM.AGE" Value="81"/>
         <ItemData ItemOID="DM.AGEU" Value="YEARS"/>
         <ItemData ItemOID="DM.SEX" Value="F"/>
         <ItemData ItemOID="DM.RACE" Value="WHITE"/>
         <ItemData ItemOID="DM.ETHNIC" Value="NOT HISPANIC OR LATINO"/>
         <ItemData ItemOID="DM.ARMCD" Value="Xan_Lo"/>
         <ItemData ItemOID="DM.ARM" Value="Xanomeline Low Dose"/>
         <ItemData ItemOID="DM.ACTARMCD" Value="Xan_Lo"/>
         <ItemData ItemOID="DM.ACTARM" Value="Xanomeline Low Dose"/>
         <ItemData ItemOID="DM.COUNTRY" Value="USA"/>
         <ItemData ItemOID="DM.DMDTC" Value="2013-02-02"/>
         <ItemData ItemOID="DM.DMDY" Value="-18"/>
         <ItemData ItemOID="DM.COMPLT16" Value="Y"/>
         <ItemData ItemOID="DM.COMPLT8" Value="Y"/>
         <ItemData ItemOID="DM.EFFICACY" Value="Y"/>
         <ItemData ItemOID="DM.ITT" Value="Y"/>
         <ItemData ItemOID="DM.SAFETY" Value="Y"/>
      </ItemGroupData>
      <ItemGroupData data:ItemGroupDataSeq="59" ItemGroupOID="DM">
         <ItemData ItemOID="DM.STUDYID" Value="CDISCPILOT01"/>
         <ItemData ItemOID="DM.DOMAIN" Value="DM"/>
         <ItemData ItemOID="DM.USUBJID" Value="01-703-1175"/>
         <ItemData ItemOID="DM.SUBJID" Value="1175"/>
         <ItemData ItemOID="DM.RFSTDTC" Value="2013-12-20"/>
         <ItemData ItemOID="DM.RFENDTC" Value="2013-12-31"/>
         <ItemData ItemOID="DM.RFXSTDTC" Value="2013-12-20"/>
         <ItemData ItemOID="DM.RFXENDTC" Value="2013-12-26"/>
         <ItemData ItemOID="DM.RFPENDTC" Value="2013-12-31T13:15"/>
         <ItemData ItemOID="DM.SITEID" Value="703"/>
         <ItemData ItemOID="DM.AGE" Value="75"/>
         <ItemData ItemOID="DM.AGEU" Value="YEARS"/>
         <ItemData ItemOID="DM.SEX" Value="M"/>
         <ItemData ItemOID="DM.RACE" Value="WHITE"/>
         <ItemData ItemOID="DM.ETHNIC" Value="NOT HISPANIC OR LATINO"/>
         <ItemData ItemOID="DM.ARMCD" Value="Pbo"/>
         <ItemData ItemOID="DM.ARM" Value="Placebo"/>
         <ItemData ItemOID="DM.ACTARMCD" Value="Pbo"/>
         <ItemData ItemOID="DM.ACTARM" Value="Placebo"/>
         <ItemData ItemOID="DM.COUNTRY" Value="USA"/>
         <ItemData ItemOID="DM.DMDTC" Value="2013-12-13"/>
         <ItemData ItemOID="DM.DMDY" Value="-7"/>
         <ItemData ItemOID="DM.EFFICACY" Value="Y"/>
         <ItemData ItemOID="DM.ITT" Value="Y"/>
         <ItemData ItemOID="DM.SAFETY" Value="Y"/>
      </ItemGroupData>
      <ItemGroupData data:ItemGroupDataSeq="60" ItemGroupOID="DM">
         <ItemData ItemOID="DM.STUDYID" Value="CDISCPILOT01"/>
         <ItemData ItemOID="DM.DOMAIN" Value="DM"/>
         <ItemData ItemOID="DM.USUBJID" Value="01-703-1182"/>
         <ItemData ItemOID="DM.SUBJID" Value="1182"/>
         <ItemData ItemOID="DM.RFSTDTC" Value="2013-10-17"/>
         <ItemData ItemOID="DM.RFENDTC" Value="2013-12-12"/>
         <ItemData ItemOID="DM.RFXSTDTC" Value="2013-10-17"/>
         <ItemData ItemOID="DM.RFXENDTC" Value="2013-12-11"/>
         <ItemData ItemOID="DM.RFPENDTC" Value="2014-01-14"/>
         <ItemData ItemOID="DM.SITEID" Value="703"/>
         <ItemData ItemOID="DM.AGE" Value="84"/>
         <ItemData ItemOID="DM.AGEU" Value="YEARS"/>
         <ItemData ItemOID="DM.SEX" Value="M"/>
         <ItemData ItemOID="DM.RACE" Value="WHITE"/>
         <ItemData ItemOID="DM.ETHNIC" Value="NOT HISPANIC OR LATINO"/>
         <ItemData ItemOID="DM.ARMCD" Value="Xan_Lo"/>
         <ItemData ItemOID="DM.ARM" Value="Xanomeline Low Dose"/>
         <ItemData ItemOID="DM.ACTARMCD" Value="Xan_Lo"/>
         <ItemData ItemOID="DM.ACTARM" Value="Xanomeline Low Dose"/>
         <ItemData ItemOID="DM.COUNTRY" Value="USA"/>
         <ItemData ItemOID="DM.DMDTC" Value="2013-10-08"/>
         <ItemData ItemOID="DM.DMDY" Value="-9"/>
         <ItemData ItemOID="DM.COMPLT8" Value="Y"/>
         <ItemData ItemOID="DM.EFFICACY" Value="Y"/>
         <ItemData ItemOID="DM.ITT" Value="Y"/>
         <ItemData ItemOID="DM.SAFETY" Value="Y"/>
      </ItemGroupData>
      <ItemGroupData data:ItemGroupDataSeq="61" ItemGroupOID="DM">
         <ItemData ItemOID="DM.STUDYID" Value="CDISCPILOT01"/>
         <ItemData ItemOID="DM.DOMAIN" Value="DM"/>
         <ItemData ItemOID="DM.USUBJID" Value="01-703-1197"/>
         <ItemData ItemOID="DM.SUBJID" Value="1197"/>
         <ItemData ItemOID="DM.RFSTDTC" Value="2013-06-16"/>
         <ItemData ItemOID="DM.RFENDTC" Value="2013-07-22"/>
         <ItemData ItemOID="DM.RFXSTDTC" Value="2013-06-16"/>
         <ItemData ItemOID="DM.RFXENDTC" Value="2013-06-29"/>
         <ItemData ItemOID="DM.RFPENDTC" Value="2013-07-22"/>
         <ItemData ItemOID="DM.SITEID" Value="703"/>
         <ItemData ItemOID="DM.AGE" Value="76"/>
         <ItemData ItemOID="DM.AGEU" Value="YEARS"/>
         <ItemData ItemOID="DM.SEX" Value="F"/>
         <ItemData ItemOID="DM.RACE" Value="BLACK OR AFRICAN AMERICAN"/>
         <ItemData ItemOID="DM.ETHNIC" Value="NOT HISPANIC OR LATINO"/>
         <ItemData ItemOID="DM.ARMCD" Value="Xan_Lo"/>
         <ItemData ItemOID="DM.ARM" Value="Xanomeline Low Dose"/>
         <ItemData ItemOID="DM.ACTARMCD" Value="Xan_Lo"/>
         <ItemData ItemOID="DM.ACTARM" Value="Xanomeline Low Dose"/>
         <ItemData ItemOID="DM.COUNTRY" Value="USA"/>
         <ItemData ItemOID="DM.DMDTC" Value="2013-06-01"/>
         <ItemData ItemOID="DM.DMDY" Value="-15"/>
         <ItemData ItemOID="DM.EFFICACY" Value="Y"/>
         <ItemData ItemOID="DM.ITT" Value="Y"/>
         <ItemData ItemOID="DM.SAFETY" Value="Y"/>
      </ItemGroupData>
      <ItemGroupData data:ItemGroupDataSeq="62" ItemGroupOID="DM">
         <ItemData ItemOID="DM.STUDYID" Value="CDISCPILOT01"/>
         <ItemData ItemOID="DM.DOMAIN" Value="DM"/>
         <ItemData ItemOID="DM.USUBJID" Value="01-703-1210"/>
         <ItemData ItemOID="DM.SUBJID" Value="1210"/>
         <ItemData ItemOID="DM.RFSTDTC" Value="2013-03-16"/>
         <ItemData ItemOID="DM.RFENDTC" Value="2013-09-06"/>
         <ItemData ItemOID="DM.RFXSTDTC" Value="2013-03-16"/>
         <ItemData ItemOID="DM.RFXENDTC" Value="2013-09-06"/>
         <ItemData ItemOID="DM.RFPENDTC" Value="2013-09-06T13:30"/>
         <ItemData ItemOID="DM.SITEID" Value="703"/>
         <ItemData ItemOID="DM.AGE" Value="72"/>
         <ItemData ItemOID="DM.AGEU" Value="YEARS"/>
         <ItemData ItemOID="DM.SEX" Value="F"/>
         <ItemData ItemOID="DM.RACE" Value="WHITE"/>
         <ItemData ItemOID="DM.ETHNIC" Value="NOT HISPANIC OR LATINO"/>
         <ItemData ItemOID="DM.ARMCD" Value="Pbo"/>
         <ItemData ItemOID="DM.ARM" Value="Placebo"/>
         <ItemData ItemOID="DM.ACTARMCD" Value="Pbo"/>
         <ItemData ItemOID="DM.ACTARM" Value="Placebo"/>
         <ItemData ItemOID="DM.COUNTRY" Value="USA"/>
         <ItemData ItemOID="DM.DMDTC" Value="2013-03-08"/>
         <ItemData ItemOID="DM.DMDY" Value="-8"/>
         <ItemData ItemOID="DM.COMPLT16" Value="Y"/>
         <ItemData ItemOID="DM.COMPLT24" Value="Y"/>
         <ItemData ItemOID="DM.COMPLT8" Value="Y"/>
         <ItemData ItemOID="DM.EFFICACY" Value="Y"/>
         <ItemData ItemOID="DM.ITT" Value="Y"/>
         <ItemData ItemOID="DM.SAFETY" Value="Y"/>
      </ItemGroupData>
      <ItemGroupData data:ItemGroupDataSeq="63" ItemGroupOID="DM">
         <ItemData ItemOID="DM.STUDYID" Value="CDISCPILOT01"/>
         <ItemData ItemOID="DM.DOMAIN" Value="DM"/>
         <ItemData ItemOID="DM.USUBJID" Value="01-703-1258"/>
         <ItemData ItemOID="DM.SUBJID" Value="1258"/>
         <ItemData ItemOID="DM.RFSTDTC" Value="2012-07-20"/>
         <ItemData ItemOID="DM.RFENDTC" Value="2013-01-21"/>
         <ItemData ItemOID="DM.RFXSTDTC" Value="2012-07-20"/>
         <ItemData ItemOID="DM.RFXENDTC" Value="2013-01-11"/>
         <ItemData ItemOID="DM.RFPENDTC" Value="2013-01-28"/>
         <ItemData ItemOID="DM.SITEID" Value="703"/>
         <ItemData ItemOID="DM.AGE" Value="78"/>
         <ItemData ItemOID="DM.AGEU" Value="YEARS"/>
         <ItemData ItemOID="DM.SEX" Value="F"/>
         <ItemData ItemOID="DM.RACE" Value="WHITE"/>
         <ItemData ItemOID="DM.ETHNIC" Value="NOT HISPANIC OR LATINO"/>
         <ItemData ItemOID="DM.ARMCD" Value="Xan_Hi"/>
         <ItemData ItemOID="DM.ARM" Value="Xanomeline High Dose"/>
         <ItemData ItemOID="DM.ACTARMCD" Value="Xan_Hi"/>
         <ItemData ItemOID="DM.ACTARM" Value="Xanomeline High Dose"/>
         <ItemData ItemOID="DM.COUNTRY" Value="USA"/>
         <ItemData ItemOID="DM.DMDTC" Value="2012-07-10"/>
         <ItemData ItemOID="DM.DMDY" Value="-10"/>
         <ItemData ItemOID="DM.COMPLT16" Value="Y"/>
         <ItemData ItemOID="DM.COMPLT24" Value="Y"/>
         <ItemData ItemOID="DM.COMPLT8" Value="Y"/>
         <ItemData ItemOID="DM.EFFICACY" Value="Y"/>
         <ItemData ItemOID="DM.ITT" Value="Y"/>
         <ItemData ItemOID="DM.SAFETY" Value="Y"/>
      </ItemGroupData>
      <ItemGroupData data:ItemGroupDataSeq="64" ItemGroupOID="DM">
         <ItemData ItemOID="DM.STUDYID" Value="CDISCPILOT01"/>
         <ItemData ItemOID="DM.DOMAIN" Value="DM"/>
         <ItemData ItemOID="DM.USUBJID" Value="01-703-1279"/>
         <ItemData ItemOID="DM.SUBJID" Value="1279"/>
         <ItemData ItemOID="DM.RFSTDTC" Value="2013-05-13"/>
         <ItemData ItemOID="DM.RFENDTC" Value="2013-06-22"/>
         <ItemData ItemOID="DM.RFXSTDTC" Value="2013-05-13"/>
         <ItemData ItemOID="DM.RFXENDTC" Value="2013-06-03"/>
         <ItemData ItemOID="DM.RFPENDTC" Value="2013-06-22"/>
         <ItemData ItemOID="DM.SITEID" Value="703"/>
         <ItemData ItemOID="DM.AGE" Value="72"/>
         <ItemData ItemOID="DM.AGEU" Value="YEARS"/>
         <ItemData ItemOID="DM.SEX" Value="F"/>
         <ItemData ItemOID="DM.RACE" Value="WHITE"/>
         <ItemData ItemOID="DM.ETHNIC" Value="NOT HISPANIC OR LATINO"/>
         <ItemData ItemOID="DM.ARMCD" Value="Xan_Lo"/>
         <ItemData ItemOID="DM.ARM" Value="Xanomeline Low Dose"/>
         <ItemData ItemOID="DM.ACTARMCD" Value="Xan_Lo"/>
         <ItemData ItemOID="DM.ACTARM" Value="Xanomeline Low Dose"/>
         <ItemData ItemOID="DM.COUNTRY" Value="USA"/>
         <ItemData ItemOID="DM.DMDTC" Value="2013-04-27"/>
         <ItemData ItemOID="DM.DMDY" Value="-16"/>
         <ItemData ItemOID="DM.ITT" Value="Y"/>
         <ItemData ItemOID="DM.SAFETY" Value="Y"/>
      </ItemGroupData>
      <ItemGroupData data:ItemGroupDataSeq="65" ItemGroupOID="DM">
         <ItemData ItemOID="DM.STUDYID" Value="CDISCPILOT01"/>
         <ItemData ItemOID="DM.DOMAIN" Value="DM"/>
         <ItemData ItemOID="DM.USUBJID" Value="01-703-1295"/>
         <ItemData ItemOID="DM.SUBJID" Value="1295"/>
         <ItemData ItemOID="DM.RFSTDTC" Value="2013-11-21"/>
         <ItemData ItemOID="DM.RFENDTC" Value="2014-05-19"/>
         <ItemData ItemOID="DM.RFXSTDTC" Value="2013-11-21"/>
         <ItemData ItemOID="DM.RFXENDTC" Value="2014-04-19"/>
         <ItemData ItemOID="DM.RFPENDTC" Value="2014-05-19T14:45"/>
         <ItemData ItemOID="DM.SITEID" Value="703"/>
         <ItemData ItemOID="DM.AGE" Value="88"/>
         <ItemData ItemOID="DM.AGEU" Value="YEARS"/>
         <ItemData ItemOID="DM.SEX" Value="F"/>
         <ItemData ItemOID="DM.RACE" Value="WHITE"/>
         <ItemData ItemOID="DM.ETHNIC" Value="NOT HISPANIC OR LATINO"/>
         <ItemData ItemOID="DM.ARMCD" Value="Xan_Hi"/>
         <ItemData ItemOID="DM.ARM" Value="Xanomeline High Dose"/>
         <ItemData ItemOID="DM.ACTARMCD" Value="Xan_Hi"/>
         <ItemData ItemOID="DM.ACTARM" Value="Xanomeline High Dose"/>
         <ItemData ItemOID="DM.COUNTRY" Value="USA"/>
         <ItemData ItemOID="DM.DMDTC" Value="2013-10-24"/>
         <ItemData ItemOID="DM.DMDY" Value="-28"/>
         <ItemData ItemOID="DM.COMPLT16" Value="Y"/>
         <ItemData ItemOID="DM.COMPLT8" Value="Y"/>
         <ItemData ItemOID="DM.EFFICACY" Value="Y"/>
         <ItemData ItemOID="DM.ITT" Value="Y"/>
         <ItemData ItemOID="DM.SAFETY" Value="Y"/>
      </ItemGroupData>
      <ItemGroupData data:ItemGroupDataSeq="66" ItemGroupOID="DM">
         <ItemData ItemOID="DM.STUDYID" Value="CDISCPILOT01"/>
         <ItemData ItemOID="DM.DOMAIN" Value="DM"/>
         <ItemData ItemOID="DM.USUBJID" Value="01-703-1299"/>
         <ItemData ItemOID="DM.SUBJID" Value="1299"/>
         <ItemData ItemOID="DM.RFSTDTC" Value="2012-09-12"/>
         <ItemData ItemOID="DM.RFENDTC" Value="2013-03-13"/>
         <ItemData ItemOID="DM.RFXSTDTC" Value="2012-09-12"/>
         <ItemData ItemOID="DM.RFXENDTC" Value="2013-03-13"/>
         <ItemData ItemOID="DM.RFPENDTC" Value="2013-03-27"/>
         <ItemData ItemOID="DM.SITEID" Value="703"/>
         <ItemData ItemOID="DM.AGE" Value="81"/>
         <ItemData ItemOID="DM.AGEU" Value="YEARS"/>
         <ItemData ItemOID="DM.SEX" Value="F"/>
         <ItemData ItemOID="DM.RACE" Value="WHITE"/>
         <ItemData ItemOID="DM.ETHNIC" Value="NOT HISPANIC OR LATINO"/>
         <ItemData ItemOID="DM.ARMCD" Value="Pbo"/>
         <ItemData ItemOID="DM.ARM" Value="Placebo"/>
         <ItemData ItemOID="DM.ACTARMCD" Value="Pbo"/>
         <ItemData ItemOID="DM.ACTARM" Value="Placebo"/>
         <ItemData ItemOID="DM.COUNTRY" Value="USA"/>
         <ItemData ItemOID="DM.DMDTC" Value="2012-09-07"/>
         <ItemData ItemOID="DM.DMDY" Value="-5"/>
         <ItemData ItemOID="DM.COMPLT16" Value="Y"/>
         <ItemData ItemOID="DM.COMPLT24" Value="Y"/>
         <ItemData ItemOID="DM.COMPLT8" Value="Y"/>
         <ItemData ItemOID="DM.EFFICACY" Value="Y"/>
         <ItemData ItemOID="DM.ITT" Value="Y"/>
         <ItemData ItemOID="DM.SAFETY" Value="Y"/>
      </ItemGroupData>
      <ItemGroupData data:ItemGroupDataSeq="67" ItemGroupOID="DM">
         <ItemData ItemOID="DM.STUDYID" Value="CDISCPILOT01"/>
         <ItemData ItemOID="DM.DOMAIN" Value="DM"/>
         <ItemData ItemOID="DM.USUBJID" Value="01-703-1335"/>
         <ItemData ItemOID="DM.SUBJID" Value="1335"/>
         <ItemData ItemOID="DM.RFSTDTC" Value="2014-03-17"/>
         <ItemData ItemOID="DM.RFENDTC" Value="2014-05-24"/>
         <ItemData ItemOID="DM.RFXSTDTC" Value="2014-03-17"/>
         <ItemData ItemOID="DM.RFXENDTC" Value="2014-05-07"/>
         <ItemData ItemOID="DM.RFPENDTC" Value="2014-05-24T12:15"/>
         <ItemData ItemOID="DM.SITEID" Value="703"/>
         <ItemData ItemOID="DM.AGE" Value="67"/>
         <ItemData ItemOID="DM.AGEU" Value="YEARS"/>
         <ItemData ItemOID="DM.SEX" Value="F"/>
         <ItemData ItemOID="DM.RACE" Value="BLACK OR AFRICAN AMERICAN"/>
         <ItemData ItemOID="DM.ETHNIC" Value="NOT HISPANIC OR LATINO"/>
         <ItemData ItemOID="DM.ARMCD" Value="Xan_Hi"/>
         <ItemData ItemOID="DM.ARM" Value="Xanomeline High Dose"/>
         <ItemData ItemOID="DM.ACTARMCD" Value="Xan_Hi"/>
         <ItemData ItemOID="DM.ACTARM" Value="Xanomeline High Dose"/>
         <ItemData ItemOID="DM.COUNTRY" Value="USA"/>
         <ItemData ItemOID="DM.DMDTC" Value="2014-02-28"/>
         <ItemData ItemOID="DM.DMDY" Value="-17"/>
         <ItemData ItemOID="DM.EFFICACY" Value="Y"/>
         <ItemData ItemOID="DM.ITT" Value="Y"/>
         <ItemData ItemOID="DM.SAFETY" Value="Y"/>
      </ItemGroupData>
      <ItemGroupData data:ItemGroupDataSeq="68" ItemGroupOID="DM">
         <ItemData ItemOID="DM.STUDYID" Value="CDISCPILOT01"/>
         <ItemData ItemOID="DM.DOMAIN" Value="DM"/>
         <ItemData ItemOID="DM.USUBJID" Value="01-703-1379"/>
         <ItemData ItemOID="DM.SUBJID" Value="1379"/>
         <ItemData ItemOID="DM.RFSTDTC" Value="2013-09-22"/>
         <ItemData ItemOID="DM.RFENDTC" Value="2014-03-21"/>
         <ItemData ItemOID="DM.RFXSTDTC" Value="2013-09-22"/>
         <ItemData ItemOID="DM.RFXENDTC" Value="2014-03-21"/>
         <ItemData ItemOID="DM.RFPENDTC" Value="2014-03-21T10:55"/>
         <ItemData ItemOID="DM.SITEID" Value="703"/>
         <ItemData ItemOID="DM.AGE" Value="81"/>
         <ItemData ItemOID="DM.AGEU" Value="YEARS"/>
         <ItemData ItemOID="DM.SEX" Value="F"/>
         <ItemData ItemOID="DM.RACE" Value="BLACK OR AFRICAN AMERICAN"/>
         <ItemData ItemOID="DM.ETHNIC" Value="NOT HISPANIC OR LATINO"/>
         <ItemData ItemOID="DM.ARMCD" Value="Xan_Lo"/>
         <ItemData ItemOID="DM.ARM" Value="Xanomeline Low Dose"/>
         <ItemData ItemOID="DM.ACTARMCD" Value="Xan_Lo"/>
         <ItemData ItemOID="DM.ACTARM" Value="Xanomeline Low Dose"/>
         <ItemData ItemOID="DM.COUNTRY" Value="USA"/>
         <ItemData ItemOID="DM.DMDTC" Value="2013-09-12"/>
         <ItemData ItemOID="DM.DMDY" Value="-10"/>
         <ItemData ItemOID="DM.COMPLT16" Value="Y"/>
         <ItemData ItemOID="DM.COMPLT24" Value="Y"/>
         <ItemData ItemOID="DM.COMPLT8" Value="Y"/>
         <ItemData ItemOID="DM.EFFICACY" Value="Y"/>
         <ItemData ItemOID="DM.ITT" Value="Y"/>
         <ItemData ItemOID="DM.SAFETY" Value="Y"/>
      </ItemGroupData>
      <ItemGroupData data:ItemGroupDataSeq="69" ItemGroupOID="DM">
         <ItemData ItemOID="DM.STUDYID" Value="CDISCPILOT01"/>
         <ItemData ItemOID="DM.DOMAIN" Value="DM"/>
         <ItemData ItemOID="DM.USUBJID" Value="01-703-1396"/>
         <ItemData ItemOID="DM.SUBJID" Value="1396"/>
         <ItemData ItemOID="DM.RFPENDTC" Value="2014-02-27"/>
         <ItemData ItemOID="DM.SITEID" Value="703"/>
         <ItemData ItemOID="DM.AGE" Value="84"/>
         <ItemData ItemOID="DM.AGEU" Value="YEARS"/>
         <ItemData ItemOID="DM.SEX" Value="M"/>
         <ItemData ItemOID="DM.RACE" Value="ASIAN"/>
         <ItemData ItemOID="DM.ETHNIC" Value="NOT HISPANIC OR LATINO"/>
         <ItemData ItemOID="DM.ARMCD" Value="Scrnfail"/>
         <ItemData ItemOID="DM.ARM" Value="Screen Failure"/>
         <ItemData ItemOID="DM.ACTARMCD" Value="Scrnfail"/>
         <ItemData ItemOID="DM.ACTARM" Value="Screen Failure"/>
         <ItemData ItemOID="DM.COUNTRY" Value="USA"/>
         <ItemData ItemOID="DM.DMDTC" Value="2014-02-09"/>
      </ItemGroupData>
      <ItemGroupData data:ItemGroupDataSeq="70" ItemGroupOID="DM">
         <ItemData ItemOID="DM.STUDYID" Value="CDISCPILOT01"/>
         <ItemData ItemOID="DM.DOMAIN" Value="DM"/>
         <ItemData ItemOID="DM.USUBJID" Value="01-703-1403"/>
         <ItemData ItemOID="DM.SUBJID" Value="1403"/>
         <ItemData ItemOID="DM.RFSTDTC" Value="2012-12-12"/>
         <ItemData ItemOID="DM.RFENDTC" Value="2012-12-19"/>
         <ItemData ItemOID="DM.RFXSTDTC" Value="2012-12-12"/>
         <ItemData ItemOID="DM.RFXENDTC" Value="2012-12-13"/>
         <ItemData ItemOID="DM.RFPENDTC" Value="2013-01-08"/>
         <ItemData ItemOID="DM.SITEID" Value="703"/>
         <ItemData ItemOID="DM.AGE" Value="67"/>
         <ItemData ItemOID="DM.AGEU" Value="YEARS"/>
         <ItemData ItemOID="DM.SEX" Value="M"/>
         <ItemData ItemOID="DM.RACE" Value="WHITE"/>
         <ItemData ItemOID="DM.ETHNIC" Value="NOT HISPANIC OR LATINO"/>
         <ItemData ItemOID="DM.ARMCD" Value="Xan_Hi"/>
         <ItemData ItemOID="DM.ARM" Value="Xanomeline High Dose"/>
         <ItemData ItemOID="DM.ACTARMCD" Value="Xan_Lo"/>
         <ItemData ItemOID="DM.ACTARM" Value="Xanomeline Low Dose"/>
         <ItemData ItemOID="DM.COUNTRY" Value="USA"/>
         <ItemData ItemOID="DM.DMDTC" Value="2012-12-05"/>
         <ItemData ItemOID="DM.DMDY" Value="-7"/>
         <ItemData ItemOID="DM.ITT" Value="Y"/>
         <ItemData ItemOID="DM.SAFETY" Value="Y"/>
      </ItemGroupData>
      <ItemGroupData data:ItemGroupDataSeq="71" ItemGroupOID="DM">
         <ItemData ItemOID="DM.STUDYID" Value="CDISCPILOT01"/>
         <ItemData ItemOID="DM.DOMAIN" Value="DM"/>
         <ItemData ItemOID="DM.USUBJID" Value="01-703-1439"/>
         <ItemData ItemOID="DM.SUBJID" Value="1439"/>
         <ItemData ItemOID="DM.RFSTDTC" Value="2014-03-12"/>
         <ItemData ItemOID="DM.RFENDTC" Value="2014-09-11"/>
         <ItemData ItemOID="DM.RFXSTDTC" Value="2014-03-12"/>
         <ItemData ItemOID="DM.RFXENDTC" Value="2014-09-11"/>
         <ItemData ItemOID="DM.RFPENDTC" Value="2014-09-11T12:40"/>
         <ItemData ItemOID="DM.SITEID" Value="703"/>
         <ItemData ItemOID="DM.AGE" Value="76"/>
         <ItemData ItemOID="DM.AGEU" Value="YEARS"/>
         <ItemData ItemOID="DM.SEX" Value="F"/>
         <ItemData ItemOID="DM.RACE" Value="WHITE"/>
         <ItemData ItemOID="DM.ETHNIC" Value="NOT HISPANIC OR LATINO"/>
         <ItemData ItemOID="DM.ARMCD" Value="Xan_Hi"/>
         <ItemData ItemOID="DM.ARM" Value="Xanomeline High Dose"/>
         <ItemData ItemOID="DM.ACTARMCD" Value="Xan_Hi"/>
         <ItemData ItemOID="DM.ACTARM" Value="Xanomeline High Dose"/>
         <ItemData ItemOID="DM.COUNTRY" Value="USA"/>
         <ItemData ItemOID="DM.DMDTC" Value="2014-03-04"/>
         <ItemData ItemOID="DM.DMDY" Value="-8"/>
         <ItemData ItemOID="DM.COMPLT16" Value="Y"/>
         <ItemData ItemOID="DM.COMPLT24" Value="Y"/>
         <ItemData ItemOID="DM.COMPLT8" Value="Y"/>
         <ItemData ItemOID="DM.EFFICACY" Value="Y"/>
         <ItemData ItemOID="DM.ITT" Value="Y"/>
         <ItemData ItemOID="DM.SAFETY" Value="Y"/>
      </ItemGroupData>
      <ItemGroupData data:ItemGroupDataSeq="72" ItemGroupOID="DM">
         <ItemData ItemOID="DM.STUDYID" Value="CDISCPILOT01"/>
         <ItemData ItemOID="DM.DOMAIN" Value="DM"/>
         <ItemData ItemOID="DM.USUBJID" Value="01-704-1008"/>
         <ItemData ItemOID="DM.SUBJID" Value="1008"/>
         <ItemData ItemOID="DM.RFSTDTC" Value="2013-01-13"/>
         <ItemData ItemOID="DM.RFENDTC" Value="2013-02-25"/>
         <ItemData ItemOID="DM.RFXSTDTC" Value="2013-01-13"/>
         <ItemData ItemOID="DM.RFXENDTC" Value="2013-02-21"/>
         <ItemData ItemOID="DM.RFPENDTC" Value="2013-02-25T11:00"/>
         <ItemData ItemOID="DM.SITEID" Value="704"/>
         <ItemData ItemOID="DM.AGE" Value="76"/>
         <ItemData ItemOID="DM.AGEU" Value="YEARS"/>
         <ItemData ItemOID="DM.SEX" Value="F"/>
         <ItemData ItemOID="DM.RACE" Value="WHITE"/>
         <ItemData ItemOID="DM.ETHNIC" Value="NOT HISPANIC OR LATINO"/>
         <ItemData ItemOID="DM.ARMCD" Value="Xan_Hi"/>
         <ItemData ItemOID="DM.ARM" Value="Xanomeline High Dose"/>
         <ItemData ItemOID="DM.ACTARMCD" Value="Xan_Hi"/>
         <ItemData ItemOID="DM.ACTARM" Value="Xanomeline High Dose"/>
         <ItemData ItemOID="DM.COUNTRY" Value="USA"/>
         <ItemData ItemOID="DM.DMDTC" Value="2013-01-06"/>
         <ItemData ItemOID="DM.DMDY" Value="-7"/>
         <ItemData ItemOID="DM.EFFICACY" Value="Y"/>
         <ItemData ItemOID="DM.ITT" Value="Y"/>
         <ItemData ItemOID="DM.SAFETY" Value="Y"/>
      </ItemGroupData>
      <ItemGroupData data:ItemGroupDataSeq="73" ItemGroupOID="DM">
         <ItemData ItemOID="DM.STUDYID" Value="CDISCPILOT01"/>
         <ItemData ItemOID="DM.DOMAIN" Value="DM"/>
         <ItemData ItemOID="DM.USUBJID" Value="01-704-1009"/>
         <ItemData ItemOID="DM.SUBJID" Value="1009"/>
         <ItemData ItemOID="DM.RFSTDTC" Value="2013-08-27"/>
         <ItemData ItemOID="DM.RFENDTC" Value="2013-10-02"/>
         <ItemData ItemOID="DM.RFXSTDTC" Value="2013-08-27"/>
         <ItemData ItemOID="DM.RFXENDTC" Value="2013-09-25"/>
         <ItemData ItemOID="DM.RFPENDTC" Value="2013-10-02"/>
         <ItemData ItemOID="DM.SITEID" Value="704"/>
         <ItemData ItemOID="DM.AGE" Value="83"/>
         <ItemData ItemOID="DM.AGEU" Value="YEARS"/>
         <ItemData ItemOID="DM.SEX" Value="M"/>
         <ItemData ItemOID="DM.RACE" Value="WHITE"/>
         <ItemData ItemOID="DM.ETHNIC" Value="NOT HISPANIC OR LATINO"/>
         <ItemData ItemOID="DM.ARMCD" Value="Xan_Lo"/>
         <ItemData ItemOID="DM.ARM" Value="Xanomeline Low Dose"/>
         <ItemData ItemOID="DM.ACTARMCD" Value="Xan_Lo"/>
         <ItemData ItemOID="DM.ACTARM" Value="Xanomeline Low Dose"/>
         <ItemData ItemOID="DM.COUNTRY" Value="USA"/>
         <ItemData ItemOID="DM.DMDTC" Value="2013-08-20"/>
         <ItemData ItemOID="DM.DMDY" Value="-7"/>
         <ItemData ItemOID="DM.EFFICACY" Value="Y"/>
         <ItemData ItemOID="DM.ITT" Value="Y"/>
         <ItemData ItemOID="DM.SAFETY" Value="Y"/>
      </ItemGroupData>
      <ItemGroupData data:ItemGroupDataSeq="74" ItemGroupOID="DM">
         <ItemData ItemOID="DM.STUDYID" Value="CDISCPILOT01"/>
         <ItemData ItemOID="DM.DOMAIN" Value="DM"/>
         <ItemData ItemOID="DM.USUBJID" Value="01-704-1010"/>
         <ItemData ItemOID="DM.SUBJID" Value="1010"/>
         <ItemData ItemOID="DM.RFSTDTC" Value="2014-02-21"/>
         <ItemData ItemOID="DM.RFENDTC" Value="2014-07-09"/>
         <ItemData ItemOID="DM.RFXSTDTC" Value="2014-02-21"/>
         <ItemData ItemOID="DM.RFXENDTC" Value="2014-07-08"/>
         <ItemData ItemOID="DM.RFPENDTC" Value="2014-07-09T11:00"/>
         <ItemData ItemOID="DM.SITEID" Value="704"/>
         <ItemData ItemOID="DM.AGE" Value="80"/>
         <ItemData ItemOID="DM.AGEU" Value="YEARS"/>
         <ItemData ItemOID="DM.SEX" Value="M"/>
         <ItemData ItemOID="DM.RACE" Value="WHITE"/>
         <ItemData ItemOID="DM.ETHNIC" Value="NOT HISPANIC OR LATINO"/>
         <ItemData ItemOID="DM.ARMCD" Value="Pbo"/>
         <ItemData ItemOID="DM.ARM" Value="Placebo"/>
         <ItemData ItemOID="DM.ACTARMCD" Value="Pbo"/>
         <ItemData ItemOID="DM.ACTARM" Value="Placebo"/>
         <ItemData ItemOID="DM.COUNTRY" Value="USA"/>
         <ItemData ItemOID="DM.DMDTC" Value="2014-02-08"/>
         <ItemData ItemOID="DM.DMDY" Value="-13"/>
         <ItemData ItemOID="DM.COMPLT16" Value="Y"/>
         <ItemData ItemOID="DM.COMPLT8" Value="Y"/>
         <ItemData ItemOID="DM.EFFICACY" Value="Y"/>
         <ItemData ItemOID="DM.ITT" Value="Y"/>
         <ItemData ItemOID="DM.SAFETY" Value="Y"/>
      </ItemGroupData>
      <ItemGroupData data:ItemGroupDataSeq="75" ItemGroupOID="DM">
         <ItemData ItemOID="DM.STUDYID" Value="CDISCPILOT01"/>
         <ItemData ItemOID="DM.DOMAIN" Value="DM"/>
         <ItemData ItemOID="DM.USUBJID" Value="01-704-1017"/>
         <ItemData ItemOID="DM.SUBJID" Value="1017"/>
         <ItemData ItemOID="DM.RFSTDTC" Value="2013-10-06"/>
         <ItemData ItemOID="DM.RFENDTC" Value="2013-11-24"/>
         <ItemData ItemOID="DM.RFXSTDTC" Value="2013-10-06"/>
         <ItemData ItemOID="DM.RFXENDTC" Value="2013-11-18"/>
         <ItemData ItemOID="DM.RFPENDTC" Value="2013-12-06"/>
         <ItemData ItemOID="DM.SITEID" Value="704"/>
         <ItemData ItemOID="DM.AGE" Value="77"/>
         <ItemData ItemOID="DM.AGEU" Value="YEARS"/>
         <ItemData ItemOID="DM.SEX" Value="M"/>
         <ItemData ItemOID="DM.RACE" Value="WHITE"/>
         <ItemData ItemOID="DM.ETHNIC" Value="NOT HISPANIC OR LATINO"/>
         <ItemData ItemOID="DM.ARMCD" Value="Xan_Hi"/>
         <ItemData ItemOID="DM.ARM" Value="Xanomeline High Dose"/>
         <ItemData ItemOID="DM.ACTARMCD" Value="Xan_Hi"/>
         <ItemData ItemOID="DM.ACTARM" Value="Xanomeline High Dose"/>
         <ItemData ItemOID="DM.COUNTRY" Value="USA"/>
         <ItemData ItemOID="DM.DMDTC" Value="2013-09-20"/>
         <ItemData ItemOID="DM.DMDY" Value="-16"/>
         <ItemData ItemOID="DM.EFFICACY" Value="Y"/>
         <ItemData ItemOID="DM.ITT" Value="Y"/>
         <ItemData ItemOID="DM.SAFETY" Value="Y"/>
      </ItemGroupData>
      <ItemGroupData data:ItemGroupDataSeq="76" ItemGroupOID="DM">
         <ItemData ItemOID="DM.STUDYID" Value="CDISCPILOT01"/>
         <ItemData ItemOID="DM.DOMAIN" Value="DM"/>
         <ItemData ItemOID="DM.USUBJID" Value="01-704-1025"/>
         <ItemData ItemOID="DM.SUBJID" Value="1025"/>
         <ItemData ItemOID="DM.RFSTDTC" Value="2013-09-27"/>
         <ItemData ItemOID="DM.RFENDTC" Value="2013-11-29"/>
         <ItemData ItemOID="DM.RFXSTDTC" Value="2013-09-27"/>
         <ItemData ItemOID="DM.RFXENDTC" Value="2013-10-24"/>
         <ItemData ItemOID="DM.RFPENDTC" Value="2013-11-29T12:00"/>
         <ItemData ItemOID="DM.SITEID" Value="704"/>
         <ItemData ItemOID="DM.AGE" Value="81"/>
         <ItemData ItemOID="DM.AGEU" Value="YEARS"/>
         <ItemData ItemOID="DM.SEX" Value="F"/>
         <ItemData ItemOID="DM.RACE" Value="WHITE"/>
         <ItemData ItemOID="DM.ETHNIC" Value="NOT HISPANIC OR LATINO"/>
         <ItemData ItemOID="DM.ARMCD" Value="Xan_Lo"/>
         <ItemData ItemOID="DM.ARM" Value="Xanomeline Low Dose"/>
         <ItemData ItemOID="DM.ACTARMCD" Value="Xan_Lo"/>
         <ItemData ItemOID="DM.ACTARM" Value="Xanomeline Low Dose"/>
         <ItemData ItemOID="DM.COUNTRY" Value="USA"/>
         <ItemData ItemOID="DM.DMDTC" Value="2013-09-18"/>
         <ItemData ItemOID="DM.DMDY" Value="-9"/>
         <ItemData ItemOID="DM.EFFICACY" Value="Y"/>
         <ItemData ItemOID="DM.ITT" Value="Y"/>
         <ItemData ItemOID="DM.SAFETY" Value="Y"/>
      </ItemGroupData>
      <ItemGroupData data:ItemGroupDataSeq="77" ItemGroupOID="DM">
         <ItemData ItemOID="DM.STUDYID" Value="CDISCPILOT01"/>
         <ItemData ItemOID="DM.DOMAIN" Value="DM"/>
         <ItemData ItemOID="DM.USUBJID" Value="01-704-1065"/>
         <ItemData ItemOID="DM.SUBJID" Value="1065"/>
         <ItemData ItemOID="DM.RFSTDTC" Value="2013-10-24"/>
         <ItemData ItemOID="DM.RFENDTC" Value="2013-12-24"/>
         <ItemData ItemOID="DM.RFXSTDTC" Value="2013-10-24"/>
         <ItemData ItemOID="DM.RFXENDTC" Value="2013-12-22"/>
         <ItemData ItemOID="DM.RFPENDTC" Value="2014-02-17"/>
         <ItemData ItemOID="DM.SITEID" Value="704"/>
         <ItemData ItemOID="DM.AGE" Value="75"/>
         <ItemData ItemOID="DM.AGEU" Value="YEARS"/>
         <ItemData ItemOID="DM.SEX" Value="M"/>
         <ItemData ItemOID="DM.RACE" Value="WHITE"/>
         <ItemData ItemOID="DM.ETHNIC" Value="NOT HISPANIC OR LATINO"/>
         <ItemData ItemOID="DM.ARMCD" Value="Xan_Hi"/>
         <ItemData ItemOID="DM.ARM" Value="Xanomeline High Dose"/>
         <ItemData ItemOID="DM.ACTARMCD" Value="Xan_Hi"/>
         <ItemData ItemOID="DM.ACTARM" Value="Xanomeline High Dose"/>
         <ItemData ItemOID="DM.COUNTRY" Value="USA"/>
         <ItemData ItemOID="DM.DMDTC" Value="2013-10-17"/>
         <ItemData ItemOID="DM.DMDY" Value="-7"/>
         <ItemData ItemOID="DM.COMPLT8" Value="Y"/>
         <ItemData ItemOID="DM.EFFICACY" Value="Y"/>
         <ItemData ItemOID="DM.ITT" Value="Y"/>
         <ItemData ItemOID="DM.SAFETY" Value="Y"/>
      </ItemGroupData>
      <ItemGroupData data:ItemGroupDataSeq="78" ItemGroupOID="DM">
         <ItemData ItemOID="DM.STUDYID" Value="CDISCPILOT01"/>
         <ItemData ItemOID="DM.DOMAIN" Value="DM"/>
         <ItemData ItemOID="DM.USUBJID" Value="01-704-1074"/>
         <ItemData ItemOID="DM.SUBJID" Value="1074"/>
         <ItemData ItemOID="DM.RFSTDTC" Value="2014-01-22"/>
         <ItemData ItemOID="DM.RFENDTC" Value="2014-03-31"/>
         <ItemData ItemOID="DM.RFXSTDTC" Value="2014-01-22"/>
         <ItemData ItemOID="DM.RFXENDTC" Value="2014-03-20"/>
         <ItemData ItemOID="DM.RFPENDTC" Value="2014-03-31T10:30"/>
         <ItemData ItemOID="DM.SITEID" Value="704"/>
         <ItemData ItemOID="DM.AGE" Value="80"/>
         <ItemData ItemOID="DM.AGEU" Value="YEARS"/>
         <ItemData ItemOID="DM.SEX" Value="F"/>
         <ItemData ItemOID="DM.RACE" Value="WHITE"/>
         <ItemData ItemOID="DM.ETHNIC" Value="NOT HISPANIC OR LATINO"/>
         <ItemData ItemOID="DM.ARMCD" Value="Xan_Hi"/>
         <ItemData ItemOID="DM.ARM" Value="Xanomeline High Dose"/>
         <ItemData ItemOID="DM.ACTARMCD" Value="Xan_Hi"/>
         <ItemData ItemOID="DM.ACTARM" Value="Xanomeline High Dose"/>
         <ItemData ItemOID="DM.COUNTRY" Value="USA"/>
         <ItemData ItemOID="DM.DMDTC" Value="2014-01-19"/>
         <ItemData ItemOID="DM.DMDY" Value="-3"/>
         <ItemData ItemOID="DM.COMPLT8" Value="Y"/>
         <ItemData ItemOID="DM.EFFICACY" Value="Y"/>
         <ItemData ItemOID="DM.ITT" Value="Y"/>
         <ItemData ItemOID="DM.SAFETY" Value="Y"/>
      </ItemGroupData>
      <ItemGroupData data:ItemGroupDataSeq="79" ItemGroupOID="DM">
         <ItemData ItemOID="DM.STUDYID" Value="CDISCPILOT01"/>
         <ItemData ItemOID="DM.DOMAIN" Value="DM"/>
         <ItemData ItemOID="DM.USUBJID" Value="01-704-1093"/>
         <ItemData ItemOID="DM.SUBJID" Value="1093"/>
         <ItemData ItemOID="DM.RFSTDTC" Value="2013-03-15"/>
         <ItemData ItemOID="DM.RFENDTC" Value="2013-06-20"/>
         <ItemData ItemOID="DM.RFXSTDTC" Value="2013-03-15"/>
         <ItemData ItemOID="DM.RFXENDTC" Value="2013-06-17"/>
         <ItemData ItemOID="DM.RFPENDTC" Value="2013-12-25"/>
         <ItemData ItemOID="DM.SITEID" Value="704"/>
         <ItemData ItemOID="DM.AGE" Value="79"/>
         <ItemData ItemOID="DM.AGEU" Value="YEARS"/>
         <ItemData ItemOID="DM.SEX" Value="M"/>
         <ItemData ItemOID="DM.RACE" Value="WHITE"/>
         <ItemData ItemOID="DM.ETHNIC" Value="NOT HISPANIC OR LATINO"/>
         <ItemData ItemOID="DM.ARMCD" Value="Xan_Hi"/>
         <ItemData ItemOID="DM.ARM" Value="Xanomeline High Dose"/>
         <ItemData ItemOID="DM.ACTARMCD" Value="Xan_Hi"/>
         <ItemData ItemOID="DM.ACTARM" Value="Xanomeline High Dose"/>
         <ItemData ItemOID="DM.COUNTRY" Value="USA"/>
         <ItemData ItemOID="DM.DMDTC" Value="2013-02-22"/>
         <ItemData ItemOID="DM.DMDY" Value="-21"/>
         <ItemData ItemOID="DM.COMPLT16" Value="Y"/>
         <ItemData ItemOID="DM.COMPLT8" Value="Y"/>
         <ItemData ItemOID="DM.EFFICACY" Value="Y"/>
         <ItemData ItemOID="DM.ITT" Value="Y"/>
         <ItemData ItemOID="DM.SAFETY" Value="Y"/>
      </ItemGroupData>
      <ItemGroupData data:ItemGroupDataSeq="80" ItemGroupOID="DM">
         <ItemData ItemOID="DM.STUDYID" Value="CDISCPILOT01"/>
         <ItemData ItemOID="DM.DOMAIN" Value="DM"/>
         <ItemData ItemOID="DM.USUBJID" Value="01-704-1114"/>
         <ItemData ItemOID="DM.SUBJID" Value="1114"/>
         <ItemData ItemOID="DM.RFSTDTC" Value="2013-01-23"/>
         <ItemData ItemOID="DM.RFENDTC" Value="2013-07-08"/>
         <ItemData ItemOID="DM.RFXSTDTC" Value="2013-01-23"/>
         <ItemData ItemOID="DM.RFXENDTC" Value="2013-07-07"/>
         <ItemData ItemOID="DM.RFPENDTC" Value="2013-07-08T09:56"/>
         <ItemData ItemOID="DM.SITEID" Value="704"/>
         <ItemData ItemOID="DM.AGE" Value="77"/>
         <ItemData ItemOID="DM.AGEU" Value="YEARS"/>
         <ItemData ItemOID="DM.SEX" Value="M"/>
         <ItemData ItemOID="DM.RACE" Value="WHITE"/>
         <ItemData ItemOID="DM.ETHNIC" Value="NOT HISPANIC OR LATINO"/>
         <ItemData ItemOID="DM.ARMCD" Value="Xan_Lo"/>
         <ItemData ItemOID="DM.ARM" Value="Xanomeline Low Dose"/>
         <ItemData ItemOID="DM.ACTARMCD" Value="Xan_Lo"/>
         <ItemData ItemOID="DM.ACTARM" Value="Xanomeline Low Dose"/>
         <ItemData ItemOID="DM.COUNTRY" Value="USA"/>
         <ItemData ItemOID="DM.DMDTC" Value="2013-01-09"/>
         <ItemData ItemOID="DM.DMDY" Value="-14"/>
         <ItemData ItemOID="DM.COMPLT16" Value="Y"/>
         <ItemData ItemOID="DM.COMPLT24" Value="Y"/>
         <ItemData ItemOID="DM.COMPLT8" Value="Y"/>
         <ItemData ItemOID="DM.EFFICACY" Value="Y"/>
         <ItemData ItemOID="DM.ITT" Value="Y"/>
         <ItemData ItemOID="DM.SAFETY" Value="Y"/>
      </ItemGroupData>
      <ItemGroupData data:ItemGroupDataSeq="81" ItemGroupOID="DM">
         <ItemData ItemOID="DM.STUDYID" Value="CDISCPILOT01"/>
         <ItemData ItemOID="DM.DOMAIN" Value="DM"/>
         <ItemData ItemOID="DM.USUBJID" Value="01-704-1120"/>
         <ItemData ItemOID="DM.SUBJID" Value="1120"/>
         <ItemData ItemOID="DM.RFSTDTC" Value="2013-12-02"/>
         <ItemData ItemOID="DM.RFENDTC" Value="2014-02-03"/>
         <ItemData ItemOID="DM.RFXSTDTC" Value="2013-12-02"/>
         <ItemData ItemOID="DM.RFXENDTC" Value="2014-02-01"/>
         <ItemData ItemOID="DM.RFPENDTC" Value="2014-03-10"/>
         <ItemData ItemOID="DM.SITEID" Value="704"/>
         <ItemData ItemOID="DM.AGE" Value="71"/>
         <ItemData ItemOID="DM.AGEU" Value="YEARS"/>
         <ItemData ItemOID="DM.SEX" Value="F"/>
         <ItemData ItemOID="DM.RACE" Value="WHITE"/>
         <ItemData ItemOID="DM.ETHNIC" Value="NOT HISPANIC OR LATINO"/>
         <ItemData ItemOID="DM.ARMCD" Value="Xan_Lo"/>
         <ItemData ItemOID="DM.ARM" Value="Xanomeline Low Dose"/>
         <ItemData ItemOID="DM.ACTARMCD" Value="Xan_Lo"/>
         <ItemData ItemOID="DM.ACTARM" Value="Xanomeline Low Dose"/>
         <ItemData ItemOID="DM.COUNTRY" Value="USA"/>
         <ItemData ItemOID="DM.DMDTC" Value="2013-11-18"/>
         <ItemData ItemOID="DM.DMDY" Value="-14"/>
         <ItemData ItemOID="DM.COMPLT8" Value="Y"/>
         <ItemData ItemOID="DM.EFFICACY" Value="Y"/>
         <ItemData ItemOID="DM.ITT" Value="Y"/>
         <ItemData ItemOID="DM.SAFETY" Value="Y"/>
      </ItemGroupData>
      <ItemGroupData data:ItemGroupDataSeq="82" ItemGroupOID="DM">
         <ItemData ItemOID="DM.STUDYID" Value="CDISCPILOT01"/>
         <ItemData ItemOID="DM.DOMAIN" Value="DM"/>
         <ItemData ItemOID="DM.USUBJID" Value="01-704-1127"/>
         <ItemData ItemOID="DM.SUBJID" Value="1127"/>
         <ItemData ItemOID="DM.RFSTDTC" Value="2013-10-02"/>
         <ItemData ItemOID="DM.RFENDTC" Value="2014-03-31"/>
         <ItemData ItemOID="DM.RFXSTDTC" Value="2013-10-02"/>
         <ItemData ItemOID="DM.RFXENDTC" Value="2014-03-31"/>
         <ItemData ItemOID="DM.RFPENDTC" Value="2014-03-31T11:30"/>
         <ItemData ItemOID="DM.SITEID" Value="704"/>
         <ItemData ItemOID="DM.AGE" Value="84"/>
         <ItemData ItemOID="DM.AGEU" Value="YEARS"/>
         <ItemData ItemOID="DM.SEX" Value="F"/>
         <ItemData ItemOID="DM.RACE" Value="WHITE"/>
         <ItemData ItemOID="DM.ETHNIC" Value="NOT HISPANIC OR LATINO"/>
         <ItemData ItemOID="DM.ARMCD" Value="Pbo"/>
         <ItemData ItemOID="DM.ARM" Value="Placebo"/>
         <ItemData ItemOID="DM.ACTARMCD" Value="Pbo"/>
         <ItemData ItemOID="DM.ACTARM" Value="Placebo"/>
         <ItemData ItemOID="DM.COUNTRY" Value="USA"/>
         <ItemData ItemOID="DM.DMDTC" Value="2013-09-16"/>
         <ItemData ItemOID="DM.DMDY" Value="-16"/>
         <ItemData ItemOID="DM.COMPLT16" Value="Y"/>
         <ItemData ItemOID="DM.COMPLT24" Value="Y"/>
         <ItemData ItemOID="DM.COMPLT8" Value="Y"/>
         <ItemData ItemOID="DM.EFFICACY" Value="Y"/>
         <ItemData ItemOID="DM.ITT" Value="Y"/>
         <ItemData ItemOID="DM.SAFETY" Value="Y"/>
      </ItemGroupData>
      <ItemGroupData data:ItemGroupDataSeq="83" ItemGroupOID="DM">
         <ItemData ItemOID="DM.STUDYID" Value="CDISCPILOT01"/>
         <ItemData ItemOID="DM.DOMAIN" Value="DM"/>
         <ItemData ItemOID="DM.USUBJID" Value="01-704-1135"/>
         <ItemData ItemOID="DM.SUBJID" Value="1135"/>
         <ItemData ItemOID="DM.RFSTDTC" Value="2013-10-31"/>
         <ItemData ItemOID="DM.RFENDTC" Value="2014-05-16"/>
         <ItemData ItemOID="DM.RFXSTDTC" Value="2013-10-31"/>
         <ItemData ItemOID="DM.RFXENDTC" Value="2014-05-16"/>
         <ItemData ItemOID="DM.RFPENDTC" Value="2014-05-16T09:45"/>
         <ItemData ItemOID="DM.SITEID" Value="704"/>
         <ItemData ItemOID="DM.AGE" Value="74"/>
         <ItemData ItemOID="DM.AGEU" Value="YEARS"/>
         <ItemData ItemOID="DM.SEX" Value="F"/>
         <ItemData ItemOID="DM.RACE" Value="WHITE"/>
         <ItemData ItemOID="DM.ETHNIC" Value="NOT HISPANIC OR LATINO"/>
         <ItemData ItemOID="DM.ARMCD" Value="Xan_Lo"/>
         <ItemData ItemOID="DM.ARM" Value="Xanomeline Low Dose"/>
         <ItemData ItemOID="DM.ACTARMCD" Value="Xan_Lo"/>
         <ItemData ItemOID="DM.ACTARM" Value="Xanomeline Low Dose"/>
         <ItemData ItemOID="DM.COUNTRY" Value="USA"/>
         <ItemData ItemOID="DM.DMDTC" Value="2013-10-23"/>
         <ItemData ItemOID="DM.DMDY" Value="-8"/>
         <ItemData ItemOID="DM.COMPLT16" Value="Y"/>
         <ItemData ItemOID="DM.COMPLT24" Value="Y"/>
         <ItemData ItemOID="DM.COMPLT8" Value="Y"/>
         <ItemData ItemOID="DM.EFFICACY" Value="Y"/>
         <ItemData ItemOID="DM.ITT" Value="Y"/>
         <ItemData ItemOID="DM.SAFETY" Value="Y"/>
      </ItemGroupData>
      <ItemGroupData data:ItemGroupDataSeq="84" ItemGroupOID="DM">
         <ItemData ItemOID="DM.STUDYID" Value="CDISCPILOT01"/>
         <ItemData ItemOID="DM.DOMAIN" Value="DM"/>
         <ItemData ItemOID="DM.USUBJID" Value="01-704-1164"/>
         <ItemData ItemOID="DM.SUBJID" Value="1164"/>
         <ItemData ItemOID="DM.RFSTDTC" Value="2012-09-19"/>
         <ItemData ItemOID="DM.RFENDTC" Value="2013-04-04"/>
         <ItemData ItemOID="DM.RFXSTDTC" Value="2012-09-19"/>
         <ItemData ItemOID="DM.RFXENDTC" Value="2013-04-04"/>
         <ItemData ItemOID="DM.RFPENDTC" Value="2013-04-04"/>
         <ItemData ItemOID="DM.SITEID" Value="704"/>
         <ItemData ItemOID="DM.AGE" Value="67"/>
         <ItemData ItemOID="DM.AGEU" Value="YEARS"/>
         <ItemData ItemOID="DM.SEX" Value="F"/>
         <ItemData ItemOID="DM.RACE" Value="WHITE"/>
         <ItemData ItemOID="DM.ETHNIC" Value="NOT HISPANIC OR LATINO"/>
         <ItemData ItemOID="DM.ARMCD" Value="Pbo"/>
         <ItemData ItemOID="DM.ARM" Value="Placebo"/>
         <ItemData ItemOID="DM.ACTARMCD" Value="Pbo"/>
         <ItemData ItemOID="DM.ACTARM" Value="Placebo"/>
         <ItemData ItemOID="DM.COUNTRY" Value="USA"/>
         <ItemData ItemOID="DM.DMDTC" Value="2012-09-11"/>
         <ItemData ItemOID="DM.DMDY" Value="-8"/>
         <ItemData ItemOID="DM.COMPLT16" Value="Y"/>
         <ItemData ItemOID="DM.COMPLT24" Value="Y"/>
         <ItemData ItemOID="DM.COMPLT8" Value="Y"/>
         <ItemData ItemOID="DM.EFFICACY" Value="Y"/>
         <ItemData ItemOID="DM.ITT" Value="Y"/>
         <ItemData ItemOID="DM.SAFETY" Value="Y"/>
      </ItemGroupData>
      <ItemGroupData data:ItemGroupDataSeq="85" ItemGroupOID="DM">
         <ItemData ItemOID="DM.STUDYID" Value="CDISCPILOT01"/>
         <ItemData ItemOID="DM.DOMAIN" Value="DM"/>
         <ItemData ItemOID="DM.USUBJID" Value="01-704-1218"/>
         <ItemData ItemOID="DM.SUBJID" Value="1218"/>
         <ItemData ItemOID="DM.RFSTDTC" Value="2012-11-19"/>
         <ItemData ItemOID="DM.RFENDTC" Value="2013-05-27"/>
         <ItemData ItemOID="DM.RFXSTDTC" Value="2012-11-19"/>
         <ItemData ItemOID="DM.RFXENDTC" Value="2013-05-27"/>
         <ItemData ItemOID="DM.RFPENDTC" Value="2013-05-27T11:20"/>
         <ItemData ItemOID="DM.SITEID" Value="704"/>
         <ItemData ItemOID="DM.AGE" Value="81"/>
         <ItemData ItemOID="DM.AGEU" Value="YEARS"/>
         <ItemData ItemOID="DM.SEX" Value="F"/>
         <ItemData ItemOID="DM.RACE" Value="WHITE"/>
         <ItemData ItemOID="DM.ETHNIC" Value="NOT HISPANIC OR LATINO"/>
         <ItemData ItemOID="DM.ARMCD" Value="Xan_Lo"/>
         <ItemData ItemOID="DM.ARM" Value="Xanomeline Low Dose"/>
         <ItemData ItemOID="DM.ACTARMCD" Value="Xan_Lo"/>
         <ItemData ItemOID="DM.ACTARM" Value="Xanomeline Low Dose"/>
         <ItemData ItemOID="DM.COUNTRY" Value="USA"/>
         <ItemData ItemOID="DM.DMDTC" Value="2012-11-11"/>
         <ItemData ItemOID="DM.DMDY" Value="-8"/>
         <ItemData ItemOID="DM.COMPLT16" Value="Y"/>
         <ItemData ItemOID="DM.COMPLT24" Value="Y"/>
         <ItemData ItemOID="DM.COMPLT8" Value="Y"/>
         <ItemData ItemOID="DM.EFFICACY" Value="Y"/>
         <ItemData ItemOID="DM.ITT" Value="Y"/>
         <ItemData ItemOID="DM.SAFETY" Value="Y"/>
      </ItemGroupData>
      <ItemGroupData data:ItemGroupDataSeq="86" ItemGroupOID="DM">
         <ItemData ItemOID="DM.STUDYID" Value="CDISCPILOT01"/>
         <ItemData ItemOID="DM.DOMAIN" Value="DM"/>
         <ItemData ItemOID="DM.USUBJID" Value="01-704-1233"/>
         <ItemData ItemOID="DM.SUBJID" Value="1233"/>
         <ItemData ItemOID="DM.RFSTDTC" Value="2013-03-21"/>
         <ItemData ItemOID="DM.RFENDTC" Value="2013-07-14"/>
         <ItemData ItemOID="DM.RFXSTDTC" Value="2013-03-21"/>
         <ItemData ItemOID="DM.RFXENDTC" Value="2013-04-04"/>
         <ItemData ItemOID="DM.RFPENDTC" Value="2013-07-14"/>
         <ItemData ItemOID="DM.SITEID" Value="704"/>
         <ItemData ItemOID="DM.AGE" Value="87"/>
         <ItemData ItemOID="DM.AGEU" Value="YEARS"/>
         <ItemData ItemOID="DM.SEX" Value="F"/>
         <ItemData ItemOID="DM.RACE" Value="WHITE"/>
         <ItemData ItemOID="DM.ETHNIC" Value="NOT HISPANIC OR LATINO"/>
         <ItemData ItemOID="DM.ARMCD" Value="Pbo"/>
         <ItemData ItemOID="DM.ARM" Value="Placebo"/>
         <ItemData ItemOID="DM.ACTARMCD" Value="Pbo"/>
         <ItemData ItemOID="DM.ACTARM" Value="Placebo"/>
         <ItemData ItemOID="DM.COUNTRY" Value="USA"/>
         <ItemData ItemOID="DM.DMDTC" Value="2013-03-08"/>
         <ItemData ItemOID="DM.DMDY" Value="-13"/>
         <ItemData ItemOID="DM.COMPLT16" Value="Y"/>
         <ItemData ItemOID="DM.COMPLT8" Value="Y"/>
         <ItemData ItemOID="DM.EFFICACY" Value="Y"/>
         <ItemData ItemOID="DM.ITT" Value="Y"/>
         <ItemData ItemOID="DM.SAFETY" Value="Y"/>
      </ItemGroupData>
      <ItemGroupData data:ItemGroupDataSeq="87" ItemGroupOID="DM">
         <ItemData ItemOID="DM.STUDYID" Value="CDISCPILOT01"/>
         <ItemData ItemOID="DM.DOMAIN" Value="DM"/>
         <ItemData ItemOID="DM.USUBJID" Value="01-704-1241"/>
         <ItemData ItemOID="DM.SUBJID" Value="1241"/>
         <ItemData ItemOID="DM.RFSTDTC" Value="2013-08-25"/>
         <ItemData ItemOID="DM.RFENDTC" Value="2013-10-31"/>
         <ItemData ItemOID="DM.RFXSTDTC" Value="2013-08-25"/>
         <ItemData ItemOID="DM.RFXENDTC" Value="2013-10-09"/>
         <ItemData ItemOID="DM.RFPENDTC" Value="2014-01-22"/>
         <ItemData ItemOID="DM.SITEID" Value="704"/>
         <ItemData ItemOID="DM.AGE" Value="86"/>
         <ItemData ItemOID="DM.AGEU" Value="YEARS"/>
         <ItemData ItemOID="DM.SEX" Value="M"/>
         <ItemData ItemOID="DM.RACE" Value="WHITE"/>
         <ItemData ItemOID="DM.ETHNIC" Value="NOT HISPANIC OR LATINO"/>
         <ItemData ItemOID="DM.ARMCD" Value="Xan_Hi"/>
         <ItemData ItemOID="DM.ARM" Value="Xanomeline High Dose"/>
         <ItemData ItemOID="DM.ACTARMCD" Value="Xan_Hi"/>
         <ItemData ItemOID="DM.ACTARM" Value="Xanomeline High Dose"/>
         <ItemData ItemOID="DM.COUNTRY" Value="USA"/>
         <ItemData ItemOID="DM.DMDTC" Value="2013-08-14"/>
         <ItemData ItemOID="DM.DMDY" Value="-11"/>
         <ItemData ItemOID="DM.COMPLT8" Value="Y"/>
         <ItemData ItemOID="DM.EFFICACY" Value="Y"/>
         <ItemData ItemOID="DM.ITT" Value="Y"/>
         <ItemData ItemOID="DM.SAFETY" Value="Y"/>
      </ItemGroupData>
      <ItemGroupData data:ItemGroupDataSeq="88" ItemGroupOID="DM">
         <ItemData ItemOID="DM.STUDYID" Value="CDISCPILOT01"/>
         <ItemData ItemOID="DM.DOMAIN" Value="DM"/>
         <ItemData ItemOID="DM.USUBJID" Value="01-704-1260"/>
         <ItemData ItemOID="DM.SUBJID" Value="1260"/>
         <ItemData ItemOID="DM.RFSTDTC" Value="2012-08-30"/>
         <ItemData ItemOID="DM.RFENDTC" Value="2013-01-18"/>
         <ItemData ItemOID="DM.RFXSTDTC" Value="2012-08-30"/>
         <ItemData ItemOID="DM.RFXENDTC" Value="2012-11-04"/>
         <ItemData ItemOID="DM.RFPENDTC" Value="2013-01-18"/>
         <ItemData ItemOID="DM.SITEID" Value="704"/>
         <ItemData ItemOID="DM.AGE" Value="71"/>
         <ItemData ItemOID="DM.AGEU" Value="YEARS"/>
         <ItemData ItemOID="DM.SEX" Value="F"/>
         <ItemData ItemOID="DM.RACE" Value="WHITE"/>
         <ItemData ItemOID="DM.ETHNIC" Value="NOT HISPANIC OR LATINO"/>
         <ItemData ItemOID="DM.ARMCD" Value="Pbo"/>
         <ItemData ItemOID="DM.ARM" Value="Placebo"/>
         <ItemData ItemOID="DM.ACTARMCD" Value="Pbo"/>
         <ItemData ItemOID="DM.ACTARM" Value="Placebo"/>
         <ItemData ItemOID="DM.COUNTRY" Value="USA"/>
         <ItemData ItemOID="DM.DMDTC" Value="2012-08-23"/>
         <ItemData ItemOID="DM.DMDY" Value="-7"/>
         <ItemData ItemOID="DM.COMPLT8" Value="Y"/>
         <ItemData ItemOID="DM.EFFICACY" Value="Y"/>
         <ItemData ItemOID="DM.ITT" Value="Y"/>
         <ItemData ItemOID="DM.SAFETY" Value="Y"/>
      </ItemGroupData>
      <ItemGroupData data:ItemGroupDataSeq="89" ItemGroupOID="DM">
         <ItemData ItemOID="DM.STUDYID" Value="CDISCPILOT01"/>
         <ItemData ItemOID="DM.DOMAIN" Value="DM"/>
         <ItemData ItemOID="DM.USUBJID" Value="01-704-1266"/>
         <ItemData ItemOID="DM.SUBJID" Value="1266"/>
         <ItemData ItemOID="DM.RFSTDTC" Value="2013-10-13"/>
         <ItemData ItemOID="DM.RFENDTC" Value="2013-12-06"/>
         <ItemData ItemOID="DM.RFXSTDTC" Value="2013-10-13"/>
         <ItemData ItemOID="DM.RFXENDTC" Value="2013-12-06"/>
         <ItemData ItemOID="DM.RFPENDTC" Value="2014-01-03"/>
         <ItemData ItemOID="DM.SITEID" Value="704"/>
         <ItemData ItemOID="DM.AGE" Value="82"/>
         <ItemData ItemOID="DM.AGEU" Value="YEARS"/>
         <ItemData ItemOID="DM.SEX" Value="M"/>
         <ItemData ItemOID="DM.RACE" Value="WHITE"/>
         <ItemData ItemOID="DM.ETHNIC" Value="NOT HISPANIC OR LATINO"/>
         <ItemData ItemOID="DM.ARMCD" Value="Xan_Hi"/>
         <ItemData ItemOID="DM.ARM" Value="Xanomeline High Dose"/>
         <ItemData ItemOID="DM.ACTARMCD" Value="Xan_Hi"/>
         <ItemData ItemOID="DM.ACTARM" Value="Xanomeline High Dose"/>
         <ItemData ItemOID="DM.COUNTRY" Value="USA"/>
         <ItemData ItemOID="DM.DMDTC" Value="2013-10-05"/>
         <ItemData ItemOID="DM.DMDY" Value="-8"/>
         <ItemData ItemOID="DM.COMPLT8" Value="Y"/>
         <ItemData ItemOID="DM.EFFICACY" Value="Y"/>
         <ItemData ItemOID="DM.ITT" Value="Y"/>
         <ItemData ItemOID="DM.SAFETY" Value="Y"/>
      </ItemGroupData>
      <ItemGroupData data:ItemGroupDataSeq="90" ItemGroupOID="DM">
         <ItemData ItemOID="DM.STUDYID" Value="CDISCPILOT01"/>
         <ItemData ItemOID="DM.DOMAIN" Value="DM"/>
         <ItemData ItemOID="DM.USUBJID" Value="01-704-1323"/>
         <ItemData ItemOID="DM.SUBJID" Value="1323"/>
         <ItemData ItemOID="DM.RFSTDTC" Value="2013-07-08"/>
         <ItemData ItemOID="DM.RFENDTC" Value="2013-08-08"/>
         <ItemData ItemOID="DM.RFXSTDTC" Value="2013-07-08"/>
         <ItemData ItemOID="DM.RFXENDTC" Value="2013-08-05"/>
         <ItemData ItemOID="DM.RFPENDTC" Value="2013-10-01"/>
         <ItemData ItemOID="DM.SITEID" Value="704"/>
         <ItemData ItemOID="DM.AGE" Value="68"/>
         <ItemData ItemOID="DM.AGEU" Value="YEARS"/>
         <ItemData ItemOID="DM.SEX" Value="F"/>
         <ItemData ItemOID="DM.RACE" Value="WHITE"/>
         <ItemData ItemOID="DM.ETHNIC" Value="NOT HISPANIC OR LATINO"/>
         <ItemData ItemOID="DM.ARMCD" Value="Xan_Lo"/>
         <ItemData ItemOID="DM.ARM" Value="Xanomeline Low Dose"/>
         <ItemData ItemOID="DM.ACTARMCD" Value="Xan_Lo"/>
         <ItemData ItemOID="DM.ACTARM" Value="Xanomeline Low Dose"/>
         <ItemData ItemOID="DM.COUNTRY" Value="USA"/>
         <ItemData ItemOID="DM.DMDTC" Value="2013-06-13"/>
         <ItemData ItemOID="DM.DMDY" Value="-25"/>
         <ItemData ItemOID="DM.ITT" Value="Y"/>
         <ItemData ItemOID="DM.SAFETY" Value="Y"/>
      </ItemGroupData>
      <ItemGroupData data:ItemGroupDataSeq="91" ItemGroupOID="DM">
         <ItemData ItemOID="DM.STUDYID" Value="CDISCPILOT01"/>
         <ItemData ItemOID="DM.DOMAIN" Value="DM"/>
         <ItemData ItemOID="DM.USUBJID" Value="01-704-1325"/>
         <ItemData ItemOID="DM.SUBJID" Value="1325"/>
         <ItemData ItemOID="DM.RFSTDTC" Value="2014-04-23"/>
         <ItemData ItemOID="DM.RFENDTC" Value="2014-08-06"/>
         <ItemData ItemOID="DM.RFXSTDTC" Value="2014-04-23"/>
         <ItemData ItemOID="DM.RFXENDTC" Value="2014-07-04"/>
         <ItemData ItemOID="DM.RFPENDTC" Value="2014-08-06T13:30"/>
         <ItemData ItemOID="DM.SITEID" Value="704"/>
         <ItemData ItemOID="DM.AGE" Value="81"/>
         <ItemData ItemOID="DM.AGEU" Value="YEARS"/>
         <ItemData ItemOID="DM.SEX" Value="M"/>
         <ItemData ItemOID="DM.RACE" Value="WHITE"/>
         <ItemData ItemOID="DM.ETHNIC" Value="NOT HISPANIC OR LATINO"/>
         <ItemData ItemOID="DM.ARMCD" Value="Xan_Lo"/>
         <ItemData ItemOID="DM.ARM" Value="Xanomeline Low Dose"/>
         <ItemData ItemOID="DM.ACTARMCD" Value="Xan_Lo"/>
         <ItemData ItemOID="DM.ACTARM" Value="Xanomeline Low Dose"/>
         <ItemData ItemOID="DM.COUNTRY" Value="USA"/>
         <ItemData ItemOID="DM.DMDTC" Value="2014-04-16"/>
         <ItemData ItemOID="DM.DMDY" Value="-7"/>
         <ItemData ItemOID="DM.COMPLT16" Value="Y"/>
         <ItemData ItemOID="DM.COMPLT8" Value="Y"/>
         <ItemData ItemOID="DM.EFFICACY" Value="Y"/>
         <ItemData ItemOID="DM.ITT" Value="Y"/>
         <ItemData ItemOID="DM.SAFETY" Value="Y"/>
      </ItemGroupData>
      <ItemGroupData data:ItemGroupDataSeq="92" ItemGroupOID="DM">
         <ItemData ItemOID="DM.STUDYID" Value="CDISCPILOT01"/>
         <ItemData ItemOID="DM.DOMAIN" Value="DM"/>
         <ItemData ItemOID="DM.USUBJID" Value="01-704-1332"/>
         <ItemData ItemOID="DM.SUBJID" Value="1332"/>
         <ItemData ItemOID="DM.RFSTDTC" Value="2013-12-09"/>
         <ItemData ItemOID="DM.RFENDTC" Value="2014-02-16"/>
         <ItemData ItemOID="DM.RFXSTDTC" Value="2013-12-09"/>
         <ItemData ItemOID="DM.RFXENDTC" Value="2014-02-14"/>
         <ItemData ItemOID="DM.RFPENDTC" Value="2014-02-24"/>
         <ItemData ItemOID="DM.SITEID" Value="704"/>
         <ItemData ItemOID="DM.AGE" Value="80"/>
         <ItemData ItemOID="DM.AGEU" Value="YEARS"/>
         <ItemData ItemOID="DM.SEX" Value="M"/>
         <ItemData ItemOID="DM.RACE" Value="WHITE"/>
         <ItemData ItemOID="DM.ETHNIC" Value="NOT HISPANIC OR LATINO"/>
         <ItemData ItemOID="DM.ARMCD" Value="Xan_Hi"/>
         <ItemData ItemOID="DM.ARM" Value="Xanomeline High Dose"/>
         <ItemData ItemOID="DM.ACTARMCD" Value="Xan_Hi"/>
         <ItemData ItemOID="DM.ACTARM" Value="Xanomeline High Dose"/>
         <ItemData ItemOID="DM.COUNTRY" Value="USA"/>
         <ItemData ItemOID="DM.DMDTC" Value="2013-11-24"/>
         <ItemData ItemOID="DM.DMDY" Value="-15"/>
         <ItemData ItemOID="DM.COMPLT8" Value="Y"/>
         <ItemData ItemOID="DM.EFFICACY" Value="Y"/>
         <ItemData ItemOID="DM.ITT" Value="Y"/>
         <ItemData ItemOID="DM.SAFETY" Value="Y"/>
      </ItemGroupData>
      <ItemGroupData data:ItemGroupDataSeq="93" ItemGroupOID="DM">
         <ItemData ItemOID="DM.STUDYID" Value="CDISCPILOT01"/>
         <ItemData ItemOID="DM.DOMAIN" Value="DM"/>
         <ItemData ItemOID="DM.USUBJID" Value="01-704-1351"/>
         <ItemData ItemOID="DM.SUBJID" Value="1351"/>
         <ItemData ItemOID="DM.RFSTDTC" Value="2013-10-12"/>
         <ItemData ItemOID="DM.RFENDTC" Value="2014-04-18"/>
         <ItemData ItemOID="DM.RFXSTDTC" Value="2013-10-12"/>
         <ItemData ItemOID="DM.RFXENDTC" Value="2014-04-18"/>
         <ItemData ItemOID="DM.RFPENDTC" Value="2014-04-18T10:30"/>
         <ItemData ItemOID="DM.SITEID" Value="704"/>
         <ItemData ItemOID="DM.AGE" Value="70"/>
         <ItemData ItemOID="DM.AGEU" Value="YEARS"/>
         <ItemData ItemOID="DM.SEX" Value="M"/>
         <ItemData ItemOID="DM.RACE" Value="WHITE"/>
         <ItemData ItemOID="DM.ETHNIC" Value="NOT HISPANIC OR LATINO"/>
         <ItemData ItemOID="DM.ARMCD" Value="Pbo"/>
         <ItemData ItemOID="DM.ARM" Value="Placebo"/>
         <ItemData ItemOID="DM.ACTARMCD" Value="Pbo"/>
         <ItemData ItemOID="DM.ACTARM" Value="Placebo"/>
         <ItemData ItemOID="DM.COUNTRY" Value="USA"/>
         <ItemData ItemOID="DM.DMDTC" Value="2013-09-26"/>
         <ItemData ItemOID="DM.DMDY" Value="-16"/>
         <ItemData ItemOID="DM.COMPLT16" Value="Y"/>
         <ItemData ItemOID="DM.COMPLT24" Value="Y"/>
         <ItemData ItemOID="DM.COMPLT8" Value="Y"/>
         <ItemData ItemOID="DM.EFFICACY" Value="Y"/>
         <ItemData ItemOID="DM.ITT" Value="Y"/>
         <ItemData ItemOID="DM.SAFETY" Value="Y"/>
      </ItemGroupData>
      <ItemGroupData data:ItemGroupDataSeq="94" ItemGroupOID="DM">
         <ItemData ItemOID="DM.STUDYID" Value="CDISCPILOT01"/>
         <ItemData ItemOID="DM.DOMAIN" Value="DM"/>
         <ItemData ItemOID="DM.USUBJID" Value="01-704-1388"/>
         <ItemData ItemOID="DM.SUBJID" Value="1388"/>
         <ItemData ItemOID="DM.RFSTDTC" Value="2012-12-07"/>
         <ItemData ItemOID="DM.RFENDTC" Value="2013-06-19"/>
         <ItemData ItemOID="DM.RFXSTDTC" Value="2012-12-07"/>
         <ItemData ItemOID="DM.RFXENDTC" Value="2013-06-11"/>
         <ItemData ItemOID="DM.RFPENDTC" Value="2013-06-19T12:30"/>
         <ItemData ItemOID="DM.SITEID" Value="704"/>
         <ItemData ItemOID="DM.AGE" Value="81"/>
         <ItemData ItemOID="DM.AGEU" Value="YEARS"/>
         <ItemData ItemOID="DM.SEX" Value="M"/>
         <ItemData ItemOID="DM.RACE" Value="WHITE"/>
         <ItemData ItemOID="DM.ETHNIC" Value="NOT HISPANIC OR LATINO"/>
         <ItemData ItemOID="DM.ARMCD" Value="Pbo"/>
         <ItemData ItemOID="DM.ARM" Value="Placebo"/>
         <ItemData ItemOID="DM.ACTARMCD" Value="Pbo"/>
         <ItemData ItemOID="DM.ACTARM" Value="Placebo"/>
         <ItemData ItemOID="DM.COUNTRY" Value="USA"/>
         <ItemData ItemOID="DM.DMDTC" Value="2012-11-28"/>
         <ItemData ItemOID="DM.DMDY" Value="-9"/>
         <ItemData ItemOID="DM.COMPLT16" Value="Y"/>
         <ItemData ItemOID="DM.COMPLT24" Value="Y"/>
         <ItemData ItemOID="DM.COMPLT8" Value="Y"/>
         <ItemData ItemOID="DM.EFFICACY" Value="Y"/>
         <ItemData ItemOID="DM.ITT" Value="Y"/>
         <ItemData ItemOID="DM.SAFETY" Value="Y"/>
      </ItemGroupData>
      <ItemGroupData data:ItemGroupDataSeq="95" ItemGroupOID="DM">
         <ItemData ItemOID="DM.STUDYID" Value="CDISCPILOT01"/>
         <ItemData ItemOID="DM.DOMAIN" Value="DM"/>
         <ItemData ItemOID="DM.USUBJID" Value="01-704-1435"/>
         <ItemData ItemOID="DM.SUBJID" Value="1435"/>
         <ItemData ItemOID="DM.RFSTDTC" Value="2012-11-17"/>
         <ItemData ItemOID="DM.RFENDTC" Value="2013-01-12"/>
         <ItemData ItemOID="DM.RFXSTDTC" Value="2012-11-17"/>
         <ItemData ItemOID="DM.RFXENDTC" Value="2013-01-09"/>
         <ItemData ItemOID="DM.RFPENDTC" Value="2013-01-12T12:00"/>
         <ItemData ItemOID="DM.SITEID" Value="704"/>
         <ItemData ItemOID="DM.AGE" Value="74"/>
         <ItemData ItemOID="DM.AGEU" Value="YEARS"/>
         <ItemData ItemOID="DM.SEX" Value="M"/>
         <ItemData ItemOID="DM.RACE" Value="WHITE"/>
         <ItemData ItemOID="DM.ETHNIC" Value="NOT HISPANIC OR LATINO"/>
         <ItemData ItemOID="DM.ARMCD" Value="Pbo"/>
         <ItemData ItemOID="DM.ARM" Value="Placebo"/>
         <ItemData ItemOID="DM.ACTARMCD" Value="Pbo"/>
         <ItemData ItemOID="DM.ACTARM" Value="Placebo"/>
         <ItemData ItemOID="DM.COUNTRY" Value="USA"/>
         <ItemData ItemOID="DM.DMDTC" Value="2012-11-01"/>
         <ItemData ItemOID="DM.DMDY" Value="-16"/>
         <ItemData ItemOID="DM.COMPLT8" Value="Y"/>
         <ItemData ItemOID="DM.EFFICACY" Value="Y"/>
         <ItemData ItemOID="DM.ITT" Value="Y"/>
         <ItemData ItemOID="DM.SAFETY" Value="Y"/>
      </ItemGroupData>
      <ItemGroupData data:ItemGroupDataSeq="96" ItemGroupOID="DM">
         <ItemData ItemOID="DM.STUDYID" Value="CDISCPILOT01"/>
         <ItemData ItemOID="DM.DOMAIN" Value="DM"/>
         <ItemData ItemOID="DM.USUBJID" Value="01-704-1445"/>
         <ItemData ItemOID="DM.SUBJID" Value="1445"/>
         <ItemData ItemOID="DM.RFSTDTC" Value="2014-05-11"/>
         <ItemData ItemOID="DM.RFENDTC" Value="2014-11-01"/>
         <ItemData ItemOID="DM.RFXSTDTC" Value="2014-05-11"/>
         <ItemData ItemOID="DM.RFXENDTC" Value="2014-11-01"/>
         <ItemData ItemOID="DM.RFPENDTC" Value="2014-11-01"/>
         <ItemData ItemOID="DM.DTHDTC" Value="2014-11-01"/>
         <ItemData ItemOID="DM.DTHFL" Value="Y"/>
         <ItemData ItemOID="DM.SITEID" Value="704"/>
         <ItemData ItemOID="DM.AGE" Value="75"/>
         <ItemData ItemOID="DM.AGEU" Value="YEARS"/>
         <ItemData ItemOID="DM.SEX" Value="M"/>
         <ItemData ItemOID="DM.RACE" Value="WHITE"/>
         <ItemData ItemOID="DM.ETHNIC" Value="NOT HISPANIC OR LATINO"/>
         <ItemData ItemOID="DM.ARMCD" Value="Pbo"/>
         <ItemData ItemOID="DM.ARM" Value="Placebo"/>
         <ItemData ItemOID="DM.ACTARMCD" Value="Pbo"/>
         <ItemData ItemOID="DM.ACTARM" Value="Placebo"/>
         <ItemData ItemOID="DM.COUNTRY" Value="USA"/>
         <ItemData ItemOID="DM.DMDTC" Value="2014-05-01"/>
         <ItemData ItemOID="DM.DMDY" Value="-10"/>
         <ItemData ItemOID="DM.COMPLT16" Value="Y"/>
         <ItemData ItemOID="DM.COMPLT24" Value="Y"/>
         <ItemData ItemOID="DM.COMPLT8" Value="Y"/>
         <ItemData ItemOID="DM.EFFICACY" Value="Y"/>
         <ItemData ItemOID="DM.ITT" Value="Y"/>
         <ItemData ItemOID="DM.SAFETY" Value="Y"/>
      </ItemGroupData>
      <ItemGroupData data:ItemGroupDataSeq="97" ItemGroupOID="DM">
         <ItemData ItemOID="DM.STUDYID" Value="CDISCPILOT01"/>
         <ItemData ItemOID="DM.DOMAIN" Value="DM"/>
         <ItemData ItemOID="DM.USUBJID" Value="01-705-1011"/>
         <ItemData ItemOID="DM.SUBJID" Value="1011"/>
         <ItemData ItemOID="DM.RFPENDTC" Value="2013-09-13"/>
         <ItemData ItemOID="DM.SITEID" Value="705"/>
         <ItemData ItemOID="DM.AGE" Value="75"/>
         <ItemData ItemOID="DM.AGEU" Value="YEARS"/>
         <ItemData ItemOID="DM.SEX" Value="F"/>
         <ItemData ItemOID="DM.RACE" Value="WHITE"/>
         <ItemData ItemOID="DM.ETHNIC" Value="NOT HISPANIC OR LATINO"/>
         <ItemData ItemOID="DM.ARMCD" Value="Scrnfail"/>
         <ItemData ItemOID="DM.ARM" Value="Screen Failure"/>
         <ItemData ItemOID="DM.ACTARMCD" Value="Scrnfail"/>
         <ItemData ItemOID="DM.ACTARM" Value="Screen Failure"/>
         <ItemData ItemOID="DM.COUNTRY" Value="USA"/>
         <ItemData ItemOID="DM.DMDTC" Value="2013-09-01"/>
      </ItemGroupData>
      <ItemGroupData data:ItemGroupDataSeq="98" ItemGroupOID="DM">
         <ItemData ItemOID="DM.STUDYID" Value="CDISCPILOT01"/>
         <ItemData ItemOID="DM.DOMAIN" Value="DM"/>
         <ItemData ItemOID="DM.USUBJID" Value="01-705-1018"/>
         <ItemData ItemOID="DM.SUBJID" Value="1018"/>
         <ItemData ItemOID="DM.RFSTDTC" Value="2013-07-05"/>
         <ItemData ItemOID="DM.RFENDTC" Value="2013-07-12"/>
         <ItemData ItemOID="DM.RFXSTDTC" Value="2013-07-05"/>
         <ItemData ItemOID="DM.RFPENDTC" Value="2013-07-12"/>
         <ItemData ItemOID="DM.SITEID" Value="705"/>
         <ItemData ItemOID="DM.AGE" Value="69"/>
         <ItemData ItemOID="DM.AGEU" Value="YEARS"/>
         <ItemData ItemOID="DM.SEX" Value="F"/>
         <ItemData ItemOID="DM.RACE" Value="WHITE"/>
         <ItemData ItemOID="DM.ETHNIC" Value="NOT HISPANIC OR LATINO"/>
         <ItemData ItemOID="DM.ARMCD" Value="Pbo"/>
         <ItemData ItemOID="DM.ARM" Value="Placebo"/>
         <ItemData ItemOID="DM.ACTARMCD" Value="Pbo"/>
         <ItemData ItemOID="DM.ACTARM" Value="Placebo"/>
         <ItemData ItemOID="DM.COUNTRY" Value="USA"/>
         <ItemData ItemOID="DM.DMDTC" Value="2013-06-30"/>
         <ItemData ItemOID="DM.DMDY" Value="-5"/>
         <ItemData ItemOID="DM.ITT" Value="Y"/>
         <ItemData ItemOID="DM.SAFETY" Value="Y"/>
      </ItemGroupData>
      <ItemGroupData data:ItemGroupDataSeq="99" ItemGroupOID="DM">
         <ItemData ItemOID="DM.STUDYID" Value="CDISCPILOT01"/>
         <ItemData ItemOID="DM.DOMAIN" Value="DM"/>
         <ItemData ItemOID="DM.USUBJID" Value="01-705-1031"/>
         <ItemData ItemOID="DM.SUBJID" Value="1031"/>
         <ItemData ItemOID="DM.RFSTDTC" Value="2013-11-27"/>
         <ItemData ItemOID="DM.RFENDTC" Value="2014-05-11"/>
         <ItemData ItemOID="DM.RFXSTDTC" Value="2013-11-27"/>
         <ItemData ItemOID="DM.RFXENDTC" Value="2013-12-18"/>
         <ItemData ItemOID="DM.RFPENDTC" Value="2014-05-11T09:55"/>
         <ItemData ItemOID="DM.SITEID" Value="705"/>
         <ItemData ItemOID="DM.AGE" Value="56"/>
         <ItemData ItemOID="DM.AGEU" Value="YEARS"/>
         <ItemData ItemOID="DM.SEX" Value="F"/>
         <ItemData ItemOID="DM.RACE" Value="WHITE"/>
         <ItemData ItemOID="DM.ETHNIC" Value="HISPANIC OR LATINO"/>
         <ItemData ItemOID="DM.ARMCD" Value="Xan_Lo"/>
         <ItemData ItemOID="DM.ARM" Value="Xanomeline Low Dose"/>
         <ItemData ItemOID="DM.ACTARMCD" Value="Xan_Lo"/>
         <ItemData ItemOID="DM.ACTARM" Value="Xanomeline Low Dose"/>
         <ItemData ItemOID="DM.COUNTRY" Value="USA"/>
         <ItemData ItemOID="DM.DMDTC" Value="2013-11-17"/>
         <ItemData ItemOID="DM.DMDY" Value="-10"/>
         <ItemData ItemOID="DM.COMPLT16" Value="Y"/>
         <ItemData ItemOID="DM.COMPLT24" Value="Y"/>
         <ItemData ItemOID="DM.COMPLT8" Value="Y"/>
         <ItemData ItemOID="DM.EFFICACY" Value="Y"/>
         <ItemData ItemOID="DM.ITT" Value="Y"/>
         <ItemData ItemOID="DM.SAFETY" Value="Y"/>
      </ItemGroupData>
      <ItemGroupData data:ItemGroupDataSeq="100" ItemGroupOID="DM">
         <ItemData ItemOID="DM.STUDYID" Value="CDISCPILOT01"/>
         <ItemData ItemOID="DM.DOMAIN" Value="DM"/>
         <ItemData ItemOID="DM.USUBJID" Value="01-705-1058"/>
         <ItemData ItemOID="DM.SUBJID" Value="1058"/>
         <ItemData ItemOID="DM.RFPENDTC" Value="2013-12-06"/>
         <ItemData ItemOID="DM.SITEID" Value="705"/>
         <ItemData ItemOID="DM.AGE" Value="89"/>
         <ItemData ItemOID="DM.AGEU" Value="YEARS"/>
         <ItemData ItemOID="DM.SEX" Value="M"/>
         <ItemData ItemOID="DM.RACE" Value="WHITE"/>
         <ItemData ItemOID="DM.ETHNIC" Value="NOT HISPANIC OR LATINO"/>
         <ItemData ItemOID="DM.ARMCD" Value="Scrnfail"/>
         <ItemData ItemOID="DM.ARM" Value="Screen Failure"/>
         <ItemData ItemOID="DM.ACTARMCD" Value="Scrnfail"/>
         <ItemData ItemOID="DM.ACTARM" Value="Screen Failure"/>
         <ItemData ItemOID="DM.COUNTRY" Value="USA"/>
         <ItemData ItemOID="DM.DMDTC" Value="2013-12-02"/>
      </ItemGroupData>
      <ItemGroupData data:ItemGroupDataSeq="101" ItemGroupOID="DM">
         <ItemData ItemOID="DM.STUDYID" Value="CDISCPILOT01"/>
         <ItemData ItemOID="DM.DOMAIN" Value="DM"/>
         <ItemData ItemOID="DM.USUBJID" Value="01-705-1059"/>
         <ItemData ItemOID="DM.SUBJID" Value="1059"/>
         <ItemData ItemOID="DM.RFSTDTC" Value="2013-08-05"/>
         <ItemData ItemOID="DM.RFENDTC" Value="2013-12-05"/>
         <ItemData ItemOID="DM.RFXSTDTC" Value="2013-08-05"/>
         <ItemData ItemOID="DM.RFXENDTC" Value="2013-12-05"/>
         <ItemData ItemOID="DM.RFPENDTC" Value="2014-02-06"/>
         <ItemData ItemOID="DM.SITEID" Value="705"/>
         <ItemData ItemOID="DM.AGE" Value="66"/>
         <ItemData ItemOID="DM.AGEU" Value="YEARS"/>
         <ItemData ItemOID="DM.SEX" Value="F"/>
         <ItemData ItemOID="DM.RACE" Value="WHITE"/>
         <ItemData ItemOID="DM.ETHNIC" Value="NOT HISPANIC OR LATINO"/>
         <ItemData ItemOID="DM.ARMCD" Value="Pbo"/>
         <ItemData ItemOID="DM.ARM" Value="Placebo"/>
         <ItemData ItemOID="DM.ACTARMCD" Value="Pbo"/>
         <ItemData ItemOID="DM.ACTARM" Value="Placebo"/>
         <ItemData ItemOID="DM.COUNTRY" Value="USA"/>
         <ItemData ItemOID="DM.DMDTC" Value="2013-08-02"/>
         <ItemData ItemOID="DM.DMDY" Value="-3"/>
         <ItemData ItemOID="DM.COMPLT16" Value="Y"/>
         <ItemData ItemOID="DM.COMPLT8" Value="Y"/>
         <ItemData ItemOID="DM.EFFICACY" Value="Y"/>
         <ItemData ItemOID="DM.ITT" Value="Y"/>
         <ItemData ItemOID="DM.SAFETY" Value="Y"/>
      </ItemGroupData>
      <ItemGroupData data:ItemGroupDataSeq="102" ItemGroupOID="DM">
         <ItemData ItemOID="DM.STUDYID" Value="CDISCPILOT01"/>
         <ItemData ItemOID="DM.DOMAIN" Value="DM"/>
         <ItemData ItemOID="DM.USUBJID" Value="01-705-1112"/>
         <ItemData ItemOID="DM.SUBJID" Value="1112"/>
         <ItemData ItemOID="DM.RFPENDTC" Value="2014-02-24"/>
         <ItemData ItemOID="DM.SITEID" Value="705"/>
         <ItemData ItemOID="DM.AGE" Value="78"/>
         <ItemData ItemOID="DM.AGEU" Value="YEARS"/>
         <ItemData ItemOID="DM.SEX" Value="M"/>
         <ItemData ItemOID="DM.RACE" Value="WHITE"/>
         <ItemData ItemOID="DM.ETHNIC" Value="NOT HISPANIC OR LATINO"/>
         <ItemData ItemOID="DM.ARMCD" Value="Scrnfail"/>
         <ItemData ItemOID="DM.ARM" Value="Screen Failure"/>
         <ItemData ItemOID="DM.ACTARMCD" Value="Scrnfail"/>
         <ItemData ItemOID="DM.ACTARM" Value="Screen Failure"/>
         <ItemData ItemOID="DM.COUNTRY" Value="USA"/>
         <ItemData ItemOID="DM.DMDTC" Value="2014-02-23"/>
      </ItemGroupData>
      <ItemGroupData data:ItemGroupDataSeq="103" ItemGroupOID="DM">
         <ItemData ItemOID="DM.STUDYID" Value="CDISCPILOT01"/>
         <ItemData ItemOID="DM.DOMAIN" Value="DM"/>
         <ItemData ItemOID="DM.USUBJID" Value="01-705-1186"/>
         <ItemData ItemOID="DM.SUBJID" Value="1186"/>
         <ItemData ItemOID="DM.RFSTDTC" Value="2014-01-08"/>
         <ItemData ItemOID="DM.RFENDTC" Value="2014-02-07"/>
         <ItemData ItemOID="DM.RFXSTDTC" Value="2014-01-08"/>
         <ItemData ItemOID="DM.RFXENDTC" Value="2014-01-26"/>
         <ItemData ItemOID="DM.RFPENDTC" Value="2014-02-07T15:20"/>
         <ItemData ItemOID="DM.SITEID" Value="705"/>
         <ItemData ItemOID="DM.AGE" Value="84"/>
         <ItemData ItemOID="DM.AGEU" Value="YEARS"/>
         <ItemData ItemOID="DM.SEX" Value="F"/>
         <ItemData ItemOID="DM.RACE" Value="WHITE"/>
         <ItemData ItemOID="DM.ETHNIC" Value="NOT HISPANIC OR LATINO"/>
         <ItemData ItemOID="DM.ARMCD" Value="Pbo"/>
         <ItemData ItemOID="DM.ARM" Value="Placebo"/>
         <ItemData ItemOID="DM.ACTARMCD" Value="Pbo"/>
         <ItemData ItemOID="DM.ACTARM" Value="Placebo"/>
         <ItemData ItemOID="DM.COUNTRY" Value="USA"/>
         <ItemData ItemOID="DM.DMDTC" Value="2014-01-03"/>
         <ItemData ItemOID="DM.DMDY" Value="-5"/>
         <ItemData ItemOID="DM.ITT" Value="Y"/>
         <ItemData ItemOID="DM.SAFETY" Value="Y"/>
      </ItemGroupData>
      <ItemGroupData data:ItemGroupDataSeq="104" ItemGroupOID="DM">
         <ItemData ItemOID="DM.STUDYID" Value="CDISCPILOT01"/>
         <ItemData ItemOID="DM.DOMAIN" Value="DM"/>
         <ItemData ItemOID="DM.USUBJID" Value="01-705-1199"/>
         <ItemData ItemOID="DM.SUBJID" Value="1199"/>
         <ItemData ItemOID="DM.RFSTDTC" Value="2013-09-16"/>
         <ItemData ItemOID="DM.RFENDTC" Value="2013-09-29"/>
         <ItemData ItemOID="DM.RFXSTDTC" Value="2013-09-16"/>
         <ItemData ItemOID="DM.RFXENDTC" Value="2013-09-28"/>
         <ItemData ItemOID="DM.RFPENDTC" Value="2013-09-29T10:30"/>
         <ItemData ItemOID="DM.SITEID" Value="705"/>
         <ItemData ItemOID="DM.AGE" Value="87"/>
         <ItemData ItemOID="DM.AGEU" Value="YEARS"/>
         <ItemData ItemOID="DM.SEX" Value="M"/>
         <ItemData ItemOID="DM.RACE" Value="WHITE"/>
         <ItemData ItemOID="DM.ETHNIC" Value="NOT HISPANIC OR LATINO"/>
         <ItemData ItemOID="DM.ARMCD" Value="Xan_Lo"/>
         <ItemData ItemOID="DM.ARM" Value="Xanomeline Low Dose"/>
         <ItemData ItemOID="DM.ACTARMCD" Value="Xan_Lo"/>
         <ItemData ItemOID="DM.ACTARM" Value="Xanomeline Low Dose"/>
         <ItemData ItemOID="DM.COUNTRY" Value="USA"/>
         <ItemData ItemOID="DM.DMDTC" Value="2013-09-11"/>
         <ItemData ItemOID="DM.DMDY" Value="-5"/>
         <ItemData ItemOID="DM.EFFICACY" Value="Y"/>
         <ItemData ItemOID="DM.ITT" Value="Y"/>
         <ItemData ItemOID="DM.SAFETY" Value="Y"/>
      </ItemGroupData>
      <ItemGroupData data:ItemGroupDataSeq="105" ItemGroupOID="DM">
         <ItemData ItemOID="DM.STUDYID" Value="CDISCPILOT01"/>
         <ItemData ItemOID="DM.DOMAIN" Value="DM"/>
         <ItemData ItemOID="DM.USUBJID" Value="01-705-1243"/>
         <ItemData ItemOID="DM.SUBJID" Value="1243"/>
         <ItemData ItemOID="DM.RFPENDTC" Value="2013-03-04"/>
         <ItemData ItemOID="DM.SITEID" Value="705"/>
         <ItemData ItemOID="DM.AGE" Value="70"/>
         <ItemData ItemOID="DM.AGEU" Value="YEARS"/>
         <ItemData ItemOID="DM.SEX" Value="F"/>
         <ItemData ItemOID="DM.RACE" Value="WHITE"/>
         <ItemData ItemOID="DM.ETHNIC" Value="HISPANIC OR LATINO"/>
         <ItemData ItemOID="DM.ARMCD" Value="Scrnfail"/>
         <ItemData ItemOID="DM.ARM" Value="Screen Failure"/>
         <ItemData ItemOID="DM.ACTARMCD" Value="Scrnfail"/>
         <ItemData ItemOID="DM.ACTARM" Value="Screen Failure"/>
         <ItemData ItemOID="DM.COUNTRY" Value="USA"/>
         <ItemData ItemOID="DM.DMDTC" Value="2013-02-26"/>
      </ItemGroupData>
      <ItemGroupData data:ItemGroupDataSeq="106" ItemGroupOID="DM">
         <ItemData ItemOID="DM.STUDYID" Value="CDISCPILOT01"/>
         <ItemData ItemOID="DM.DOMAIN" Value="DM"/>
         <ItemData ItemOID="DM.USUBJID" Value="01-705-1280"/>
         <ItemData ItemOID="DM.SUBJID" Value="1280"/>
         <ItemData ItemOID="DM.RFSTDTC" Value="2014-01-17"/>
         <ItemData ItemOID="DM.RFENDTC" Value="2014-07-25"/>
         <ItemData ItemOID="DM.RFXSTDTC" Value="2014-01-17"/>
         <ItemData ItemOID="DM.RFXENDTC" Value="2014-07-25"/>
         <ItemData ItemOID="DM.RFPENDTC" Value="2014-07-25"/>
         <ItemData ItemOID="DM.SITEID" Value="705"/>
         <ItemData ItemOID="DM.AGE" Value="56"/>
         <ItemData ItemOID="DM.AGEU" Value="YEARS"/>
         <ItemData ItemOID="DM.SEX" Value="F"/>
         <ItemData ItemOID="DM.RACE" Value="WHITE"/>
         <ItemData ItemOID="DM.ETHNIC" Value="NOT HISPANIC OR LATINO"/>
         <ItemData ItemOID="DM.ARMCD" Value="Xan_Hi"/>
         <ItemData ItemOID="DM.ARM" Value="Xanomeline High Dose"/>
         <ItemData ItemOID="DM.ACTARMCD" Value="Xan_Hi"/>
         <ItemData ItemOID="DM.ACTARM" Value="Xanomeline High Dose"/>
         <ItemData ItemOID="DM.COUNTRY" Value="USA"/>
         <ItemData ItemOID="DM.DMDTC" Value="2014-01-11"/>
         <ItemData ItemOID="DM.DMDY" Value="-6"/>
         <ItemData ItemOID="DM.COMPLT16" Value="Y"/>
         <ItemData ItemOID="DM.COMPLT24" Value="Y"/>
         <ItemData ItemOID="DM.COMPLT8" Value="Y"/>
         <ItemData ItemOID="DM.EFFICACY" Value="Y"/>
         <ItemData ItemOID="DM.ITT" Value="Y"/>
         <ItemData ItemOID="DM.SAFETY" Value="Y"/>
      </ItemGroupData>
      <ItemGroupData data:ItemGroupDataSeq="107" ItemGroupOID="DM">
         <ItemData ItemOID="DM.STUDYID" Value="CDISCPILOT01"/>
         <ItemData ItemOID="DM.DOMAIN" Value="DM"/>
         <ItemData ItemOID="DM.USUBJID" Value="01-705-1281"/>
         <ItemData ItemOID="DM.SUBJID" Value="1281"/>
         <ItemData ItemOID="DM.RFSTDTC" Value="2013-11-28"/>
         <ItemData ItemOID="DM.RFENDTC" Value="2014-03-17"/>
         <ItemData ItemOID="DM.RFXSTDTC" Value="2013-11-28"/>
         <ItemData ItemOID="DM.RFXENDTC" Value="2014-02-27"/>
         <ItemData ItemOID="DM.RFPENDTC" Value="2014-04-20"/>
         <ItemData ItemOID="DM.SITEID" Value="705"/>
         <ItemData ItemOID="DM.AGE" Value="73"/>
         <ItemData ItemOID="DM.AGEU" Value="YEARS"/>
         <ItemData ItemOID="DM.SEX" Value="F"/>
         <ItemData ItemOID="DM.RACE" Value="BLACK OR AFRICAN AMERICAN"/>
         <ItemData ItemOID="DM.ETHNIC" Value="NOT HISPANIC OR LATINO"/>
         <ItemData ItemOID="DM.ARMCD" Value="Xan_Hi"/>
         <ItemData ItemOID="DM.ARM" Value="Xanomeline High Dose"/>
         <ItemData ItemOID="DM.ACTARMCD" Value="Xan_Hi"/>
         <ItemData ItemOID="DM.ACTARM" Value="Xanomeline High Dose"/>
         <ItemData ItemOID="DM.COUNTRY" Value="USA"/>
         <ItemData ItemOID="DM.DMDTC" Value="2013-11-26"/>
         <ItemData ItemOID="DM.DMDY" Value="-2"/>
         <ItemData ItemOID="DM.COMPLT16" Value="Y"/>
         <ItemData ItemOID="DM.COMPLT8" Value="Y"/>
         <ItemData ItemOID="DM.EFFICACY" Value="Y"/>
         <ItemData ItemOID="DM.ITT" Value="Y"/>
         <ItemData ItemOID="DM.SAFETY" Value="Y"/>
      </ItemGroupData>
      <ItemGroupData data:ItemGroupDataSeq="108" ItemGroupOID="DM">
         <ItemData ItemOID="DM.STUDYID" Value="CDISCPILOT01"/>
         <ItemData ItemOID="DM.DOMAIN" Value="DM"/>
         <ItemData ItemOID="DM.USUBJID" Value="01-705-1282"/>
         <ItemData ItemOID="DM.SUBJID" Value="1282"/>
         <ItemData ItemOID="DM.RFSTDTC" Value="2012-12-26"/>
         <ItemData ItemOID="DM.RFENDTC" Value="2013-06-24"/>
         <ItemData ItemOID="DM.RFXSTDTC" Value="2012-12-26"/>
         <ItemData ItemOID="DM.RFXENDTC" Value="2013-06-24"/>
         <ItemData ItemOID="DM.RFPENDTC" Value="2013-06-24T15:25"/>
         <ItemData ItemOID="DM.SITEID" Value="705"/>
         <ItemData ItemOID="DM.AGE" Value="70"/>
         <ItemData ItemOID="DM.AGEU" Value="YEARS"/>
         <ItemData ItemOID="DM.SEX" Value="F"/>
         <ItemData ItemOID="DM.RACE" Value="BLACK OR AFRICAN AMERICAN"/>
         <ItemData ItemOID="DM.ETHNIC" Value="NOT HISPANIC OR LATINO"/>
         <ItemData ItemOID="DM.ARMCD" Value="Pbo"/>
         <ItemData ItemOID="DM.ARM" Value="Placebo"/>
         <ItemData ItemOID="DM.ACTARMCD" Value="Pbo"/>
         <ItemData ItemOID="DM.ACTARM" Value="Placebo"/>
         <ItemData ItemOID="DM.COUNTRY" Value="USA"/>
         <ItemData ItemOID="DM.DMDTC" Value="2012-12-23"/>
         <ItemData ItemOID="DM.DMDY" Value="-3"/>
         <ItemData ItemOID="DM.COMPLT16" Value="Y"/>
         <ItemData ItemOID="DM.COMPLT24" Value="Y"/>
         <ItemData ItemOID="DM.COMPLT8" Value="Y"/>
         <ItemData ItemOID="DM.EFFICACY" Value="Y"/>
         <ItemData ItemOID="DM.ITT" Value="Y"/>
         <ItemData ItemOID="DM.SAFETY" Value="Y"/>
      </ItemGroupData>
      <ItemGroupData data:ItemGroupDataSeq="109" ItemGroupOID="DM">
         <ItemData ItemOID="DM.STUDYID" Value="CDISCPILOT01"/>
         <ItemData ItemOID="DM.DOMAIN" Value="DM"/>
         <ItemData ItemOID="DM.USUBJID" Value="01-705-1292"/>
         <ItemData ItemOID="DM.SUBJID" Value="1292"/>
         <ItemData ItemOID="DM.RFSTDTC" Value="2013-10-14"/>
         <ItemData ItemOID="DM.RFENDTC" Value="2014-05-14"/>
         <ItemData ItemOID="DM.RFXSTDTC" Value="2013-10-14"/>
         <ItemData ItemOID="DM.RFXENDTC" Value="2014-05-13"/>
         <ItemData ItemOID="DM.RFPENDTC" Value="2014-05-14T13:33"/>
         <ItemData ItemOID="DM.SITEID" Value="705"/>
         <ItemData ItemOID="DM.AGE" Value="60"/>
         <ItemData ItemOID="DM.AGEU" Value="YEARS"/>
         <ItemData ItemOID="DM.SEX" Value="F"/>
         <ItemData ItemOID="DM.RACE" Value="BLACK OR AFRICAN AMERICAN"/>
         <ItemData ItemOID="DM.ETHNIC" Value="NOT HISPANIC OR LATINO"/>
         <ItemData ItemOID="DM.ARMCD" Value="Xan_Lo"/>
         <ItemData ItemOID="DM.ARM" Value="Xanomeline Low Dose"/>
         <ItemData ItemOID="DM.ACTARMCD" Value="Xan_Lo"/>
         <ItemData ItemOID="DM.ACTARM" Value="Xanomeline Low Dose"/>
         <ItemData ItemOID="DM.COUNTRY" Value="USA"/>
         <ItemData ItemOID="DM.DMDTC" Value="2013-10-11"/>
         <ItemData ItemOID="DM.DMDY" Value="-3"/>
         <ItemData ItemOID="DM.COMPLT16" Value="Y"/>
         <ItemData ItemOID="DM.COMPLT24" Value="Y"/>
         <ItemData ItemOID="DM.COMPLT8" Value="Y"/>
         <ItemData ItemOID="DM.EFFICACY" Value="Y"/>
         <ItemData ItemOID="DM.ITT" Value="Y"/>
         <ItemData ItemOID="DM.SAFETY" Value="Y"/>
      </ItemGroupData>
      <ItemGroupData data:ItemGroupDataSeq="110" ItemGroupOID="DM">
         <ItemData ItemOID="DM.STUDYID" Value="CDISCPILOT01"/>
         <ItemData ItemOID="DM.DOMAIN" Value="DM"/>
         <ItemData ItemOID="DM.USUBJID" Value="01-705-1303"/>
         <ItemData ItemOID="DM.SUBJID" Value="1303"/>
         <ItemData ItemOID="DM.RFSTDTC" Value="2013-12-16"/>
         <ItemData ItemOID="DM.RFENDTC" Value="2014-06-02"/>
         <ItemData ItemOID="DM.RFXSTDTC" Value="2013-12-16"/>
         <ItemData ItemOID="DM.RFXENDTC" Value="2013-12-30"/>
         <ItemData ItemOID="DM.RFPENDTC" Value="2014-06-02"/>
         <ItemData ItemOID="DM.SITEID" Value="705"/>
         <ItemData ItemOID="DM.AGE" Value="72"/>
         <ItemData ItemOID="DM.AGEU" Value="YEARS"/>
         <ItemData ItemOID="DM.SEX" Value="M"/>
         <ItemData ItemOID="DM.RACE" Value="WHITE"/>
         <ItemData ItemOID="DM.ETHNIC" Value="NOT HISPANIC OR LATINO"/>
         <ItemData ItemOID="DM.ARMCD" Value="Xan_Hi"/>
         <ItemData ItemOID="DM.ARM" Value="Xanomeline High Dose"/>
         <ItemData ItemOID="DM.ACTARMCD" Value="Xan_Hi"/>
         <ItemData ItemOID="DM.ACTARM" Value="Xanomeline High Dose"/>
         <ItemData ItemOID="DM.COUNTRY" Value="USA"/>
         <ItemData ItemOID="DM.DMDTC" Value="2013-12-10"/>
         <ItemData ItemOID="DM.DMDY" Value="-6"/>
         <ItemData ItemOID="DM.COMPLT16" Value="Y"/>
         <ItemData ItemOID="DM.COMPLT8" Value="Y"/>
         <ItemData ItemOID="DM.EFFICACY" Value="Y"/>
         <ItemData ItemOID="DM.ITT" Value="Y"/>
         <ItemData ItemOID="DM.SAFETY" Value="Y"/>
      </ItemGroupData>
      <ItemGroupData data:ItemGroupDataSeq="111" ItemGroupOID="DM">
         <ItemData ItemOID="DM.STUDYID" Value="CDISCPILOT01"/>
         <ItemData ItemOID="DM.DOMAIN" Value="DM"/>
         <ItemData ItemOID="DM.USUBJID" Value="01-705-1310"/>
         <ItemData ItemOID="DM.SUBJID" Value="1310"/>
         <ItemData ItemOID="DM.RFSTDTC" Value="2013-11-02"/>
         <ItemData ItemOID="DM.RFENDTC" Value="2014-01-23"/>
         <ItemData ItemOID="DM.RFXSTDTC" Value="2013-11-02"/>
         <ItemData ItemOID="DM.RFXENDTC" Value="2014-01-23"/>
         <ItemData ItemOID="DM.RFPENDTC" Value="2014-02-24"/>
         <ItemData ItemOID="DM.SITEID" Value="705"/>
         <ItemData ItemOID="DM.AGE" Value="74"/>
         <ItemData ItemOID="DM.AGEU" Value="YEARS"/>
         <ItemData ItemOID="DM.SEX" Value="F"/>
         <ItemData ItemOID="DM.RACE" Value="WHITE"/>
         <ItemData ItemOID="DM.ETHNIC" Value="NOT HISPANIC OR LATINO"/>
         <ItemData ItemOID="DM.ARMCD" Value="Xan_Hi"/>
         <ItemData ItemOID="DM.ARM" Value="Xanomeline High Dose"/>
         <ItemData ItemOID="DM.ACTARMCD" Value="Xan_Hi"/>
         <ItemData ItemOID="DM.ACTARM" Value="Xanomeline High Dose"/>
         <ItemData ItemOID="DM.COUNTRY" Value="USA"/>
         <ItemData ItemOID="DM.DMDTC" Value="2013-10-26"/>
         <ItemData ItemOID="DM.DMDY" Value="-7"/>
         <ItemData ItemOID="DM.COMPLT8" Value="Y"/>
         <ItemData ItemOID="DM.EFFICACY" Value="Y"/>
         <ItemData ItemOID="DM.ITT" Value="Y"/>
         <ItemData ItemOID="DM.SAFETY" Value="Y"/>
      </ItemGroupData>
      <ItemGroupData data:ItemGroupDataSeq="112" ItemGroupOID="DM">
         <ItemData ItemOID="DM.STUDYID" Value="CDISCPILOT01"/>
         <ItemData ItemOID="DM.DOMAIN" Value="DM"/>
         <ItemData ItemOID="DM.USUBJID" Value="01-705-1349"/>
         <ItemData ItemOID="DM.SUBJID" Value="1349"/>
         <ItemData ItemOID="DM.RFSTDTC" Value="2013-03-10"/>
         <ItemData ItemOID="DM.RFENDTC" Value="2013-09-08"/>
         <ItemData ItemOID="DM.RFXSTDTC" Value="2013-03-10"/>
         <ItemData ItemOID="DM.RFXENDTC" Value="2013-09-08"/>
         <ItemData ItemOID="DM.RFPENDTC" Value="2013-09-08T10:10"/>
         <ItemData ItemOID="DM.SITEID" Value="705"/>
         <ItemData ItemOID="DM.AGE" Value="86"/>
         <ItemData ItemOID="DM.AGEU" Value="YEARS"/>
         <ItemData ItemOID="DM.SEX" Value="F"/>
         <ItemData ItemOID="DM.RACE" Value="WHITE"/>
         <ItemData ItemOID="DM.ETHNIC" Value="HISPANIC OR LATINO"/>
         <ItemData ItemOID="DM.ARMCD" Value="Pbo"/>
         <ItemData ItemOID="DM.ARM" Value="Placebo"/>
         <ItemData ItemOID="DM.ACTARMCD" Value="Pbo"/>
         <ItemData ItemOID="DM.ACTARM" Value="Placebo"/>
         <ItemData ItemOID="DM.COUNTRY" Value="USA"/>
         <ItemData ItemOID="DM.DMDTC" Value="2013-02-24"/>
         <ItemData ItemOID="DM.DMDY" Value="-14"/>
         <ItemData ItemOID="DM.COMPLT16" Value="Y"/>
         <ItemData ItemOID="DM.COMPLT24" Value="Y"/>
         <ItemData ItemOID="DM.COMPLT8" Value="Y"/>
         <ItemData ItemOID="DM.EFFICACY" Value="Y"/>
         <ItemData ItemOID="DM.ITT" Value="Y"/>
         <ItemData ItemOID="DM.SAFETY" Value="Y"/>
      </ItemGroupData>
      <ItemGroupData data:ItemGroupDataSeq="113" ItemGroupOID="DM">
         <ItemData ItemOID="DM.STUDYID" Value="CDISCPILOT01"/>
         <ItemData ItemOID="DM.DOMAIN" Value="DM"/>
         <ItemData ItemOID="DM.USUBJID" Value="01-705-1377"/>
         <ItemData ItemOID="DM.SUBJID" Value="1377"/>
         <ItemData ItemOID="DM.RFSTDTC" Value="2014-01-04"/>
         <ItemData ItemOID="DM.RFENDTC" Value="2014-03-07"/>
         <ItemData ItemOID="DM.RFXSTDTC" Value="2014-01-04"/>
         <ItemData ItemOID="DM.RFXENDTC" Value="2014-01-25"/>
         <ItemData ItemOID="DM.RFPENDTC" Value="2014-03-07"/>
         <ItemData ItemOID="DM.SITEID" Value="705"/>
         <ItemData ItemOID="DM.AGE" Value="63"/>
         <ItemData ItemOID="DM.AGEU" Value="YEARS"/>
         <ItemData ItemOID="DM.SEX" Value="F"/>
         <ItemData ItemOID="DM.RACE" Value="BLACK OR AFRICAN AMERICAN"/>
         <ItemData ItemOID="DM.ETHNIC" Value="NOT HISPANIC OR LATINO"/>
         <ItemData ItemOID="DM.ARMCD" Value="Xan_Hi"/>
         <ItemData ItemOID="DM.ARM" Value="Xanomeline High Dose"/>
         <ItemData ItemOID="DM.ACTARMCD" Value="Xan_Hi"/>
         <ItemData ItemOID="DM.ACTARM" Value="Xanomeline High Dose"/>
         <ItemData ItemOID="DM.COUNTRY" Value="USA"/>
         <ItemData ItemOID="DM.DMDTC" Value="2013-12-29"/>
         <ItemData ItemOID="DM.DMDY" Value="-6"/>
         <ItemData ItemOID="DM.ITT" Value="Y"/>
         <ItemData ItemOID="DM.SAFETY" Value="Y"/>
      </ItemGroupData>
      <ItemGroupData data:ItemGroupDataSeq="114" ItemGroupOID="DM">
         <ItemData ItemOID="DM.STUDYID" Value="CDISCPILOT01"/>
         <ItemData ItemOID="DM.DOMAIN" Value="DM"/>
         <ItemData ItemOID="DM.USUBJID" Value="01-705-1382"/>
         <ItemData ItemOID="DM.SUBJID" Value="1382"/>
         <ItemData ItemOID="DM.RFSTDTC" Value="2013-05-13"/>
         <ItemData ItemOID="DM.RFENDTC" Value="2013-05-13"/>
         <ItemData ItemOID="DM.RFXSTDTC" Value="2013-05-13"/>
         <ItemData ItemOID="DM.RFPENDTC" Value="2013-05-13"/>
         <ItemData ItemOID="DM.SITEID" Value="705"/>
         <ItemData ItemOID="DM.AGE" Value="82"/>
         <ItemData ItemOID="DM.AGEU" Value="YEARS"/>
         <ItemData ItemOID="DM.SEX" Value="M"/>
         <ItemData ItemOID="DM.RACE" Value="WHITE"/>
         <ItemData ItemOID="DM.ETHNIC" Value="NOT HISPANIC OR LATINO"/>
         <ItemData ItemOID="DM.ARMCD" Value="Xan_Hi"/>
         <ItemData ItemOID="DM.ARM" Value="Xanomeline High Dose"/>
         <ItemData ItemOID="DM.ACTARMCD" Value="Xan_Lo"/>
         <ItemData ItemOID="DM.ACTARM" Value="Xanomeline Low Dose"/>
         <ItemData ItemOID="DM.COUNTRY" Value="USA"/>
         <ItemData ItemOID="DM.DMDTC" Value="2013-05-09"/>
         <ItemData ItemOID="DM.DMDY" Value="-4"/>
         <ItemData ItemOID="DM.ITT" Value="Y"/>
         <ItemData ItemOID="DM.SAFETY" Value="Y"/>
      </ItemGroupData>
      <ItemGroupData data:ItemGroupDataSeq="115" ItemGroupOID="DM">
         <ItemData ItemOID="DM.STUDYID" Value="CDISCPILOT01"/>
         <ItemData ItemOID="DM.DOMAIN" Value="DM"/>
         <ItemData ItemOID="DM.USUBJID" Value="01-705-1393"/>
         <ItemData ItemOID="DM.SUBJID" Value="1393"/>
         <ItemData ItemOID="DM.RFSTDTC" Value="2012-09-07"/>
         <ItemData ItemOID="DM.RFENDTC" Value="2013-02-20"/>
         <ItemData ItemOID="DM.RFXSTDTC" Value="2012-09-07"/>
         <ItemData ItemOID="DM.RFXENDTC" Value="2013-02-01"/>
         <ItemData ItemOID="DM.RFPENDTC" Value="2013-04-25"/>
         <ItemData ItemOID="DM.SITEID" Value="705"/>
         <ItemData ItemOID="DM.AGE" Value="84"/>
         <ItemData ItemOID="DM.AGEU" Value="YEARS"/>
         <ItemData ItemOID="DM.SEX" Value="F"/>
         <ItemData ItemOID="DM.RACE" Value="WHITE"/>
         <ItemData ItemOID="DM.ETHNIC" Value="NOT HISPANIC OR LATINO"/>
         <ItemData ItemOID="DM.ARMCD" Value="Xan_Lo"/>
         <ItemData ItemOID="DM.ARM" Value="Xanomeline Low Dose"/>
         <ItemData ItemOID="DM.ACTARMCD" Value="Xan_Lo"/>
         <ItemData ItemOID="DM.ACTARM" Value="Xanomeline Low Dose"/>
         <ItemData ItemOID="DM.COUNTRY" Value="USA"/>
         <ItemData ItemOID="DM.DMDTC" Value="2012-09-02"/>
         <ItemData ItemOID="DM.DMDY" Value="-5"/>
         <ItemData ItemOID="DM.COMPLT16" Value="Y"/>
         <ItemData ItemOID="DM.COMPLT8" Value="Y"/>
         <ItemData ItemOID="DM.EFFICACY" Value="Y"/>
         <ItemData ItemOID="DM.ITT" Value="Y"/>
         <ItemData ItemOID="DM.SAFETY" Value="Y"/>
      </ItemGroupData>
      <ItemGroupData data:ItemGroupDataSeq="116" ItemGroupOID="DM">
         <ItemData ItemOID="DM.STUDYID" Value="CDISCPILOT01"/>
         <ItemData ItemOID="DM.DOMAIN" Value="DM"/>
         <ItemData ItemOID="DM.USUBJID" Value="01-705-1421"/>
         <ItemData ItemOID="DM.SUBJID" Value="1421"/>
         <ItemData ItemOID="DM.RFPENDTC" Value="2013-01-16"/>
         <ItemData ItemOID="DM.SITEID" Value="705"/>
         <ItemData ItemOID="DM.AGE" Value="87"/>
         <ItemData ItemOID="DM.AGEU" Value="YEARS"/>
         <ItemData ItemOID="DM.SEX" Value="M"/>
         <ItemData ItemOID="DM.RACE" Value="WHITE"/>
         <ItemData ItemOID="DM.ETHNIC" Value="NOT HISPANIC OR LATINO"/>
         <ItemData ItemOID="DM.ARMCD" Value="Scrnfail"/>
         <ItemData ItemOID="DM.ARM" Value="Screen Failure"/>
         <ItemData ItemOID="DM.ACTARMCD" Value="Scrnfail"/>
         <ItemData ItemOID="DM.ACTARM" Value="Screen Failure"/>
         <ItemData ItemOID="DM.COUNTRY" Value="USA"/>
         <ItemData ItemOID="DM.DMDTC" Value="2013-01-14"/>
      </ItemGroupData>
      <ItemGroupData data:ItemGroupDataSeq="117" ItemGroupOID="DM">
         <ItemData ItemOID="DM.STUDYID" Value="CDISCPILOT01"/>
         <ItemData ItemOID="DM.DOMAIN" Value="DM"/>
         <ItemData ItemOID="DM.USUBJID" Value="01-705-1431"/>
         <ItemData ItemOID="DM.SUBJID" Value="1431"/>
         <ItemData ItemOID="DM.RFSTDTC" Value="2013-06-23"/>
         <ItemData ItemOID="DM.RFENDTC" Value="2013-12-19"/>
         <ItemData ItemOID="DM.RFXSTDTC" Value="2013-06-23"/>
         <ItemData ItemOID="DM.RFXENDTC" Value="2013-12-19"/>
         <ItemData ItemOID="DM.RFPENDTC" Value="2013-12-19T10:05"/>
         <ItemData ItemOID="DM.SITEID" Value="705"/>
         <ItemData ItemOID="DM.AGE" Value="68"/>
         <ItemData ItemOID="DM.AGEU" Value="YEARS"/>
         <ItemData ItemOID="DM.SEX" Value="F"/>
         <ItemData ItemOID="DM.RACE" Value="WHITE"/>
         <ItemData ItemOID="DM.ETHNIC" Value="HISPANIC OR LATINO"/>
         <ItemData ItemOID="DM.ARMCD" Value="Xan_Lo"/>
         <ItemData ItemOID="DM.ARM" Value="Xanomeline Low Dose"/>
         <ItemData ItemOID="DM.ACTARMCD" Value="Xan_Lo"/>
         <ItemData ItemOID="DM.ACTARM" Value="Xanomeline Low Dose"/>
         <ItemData ItemOID="DM.COUNTRY" Value="USA"/>
         <ItemData ItemOID="DM.DMDTC" Value="2013-06-16"/>
         <ItemData ItemOID="DM.DMDY" Value="-7"/>
         <ItemData ItemOID="DM.COMPLT16" Value="Y"/>
         <ItemData ItemOID="DM.COMPLT24" Value="Y"/>
         <ItemData ItemOID="DM.COMPLT8" Value="Y"/>
         <ItemData ItemOID="DM.EFFICACY" Value="Y"/>
         <ItemData ItemOID="DM.ITT" Value="Y"/>
         <ItemData ItemOID="DM.SAFETY" Value="Y"/>
      </ItemGroupData>
      <ItemGroupData data:ItemGroupDataSeq="118" ItemGroupOID="DM">
         <ItemData ItemOID="DM.STUDYID" Value="CDISCPILOT01"/>
         <ItemData ItemOID="DM.DOMAIN" Value="DM"/>
         <ItemData ItemOID="DM.USUBJID" Value="01-706-1041"/>
         <ItemData ItemOID="DM.SUBJID" Value="1041"/>
         <ItemData ItemOID="DM.RFSTDTC" Value="2013-12-31"/>
         <ItemData ItemOID="DM.RFENDTC" Value="2014-07-29"/>
         <ItemData ItemOID="DM.RFXSTDTC" Value="2013-12-31"/>
         <ItemData ItemOID="DM.RFXENDTC" Value="2014-07-28"/>
         <ItemData ItemOID="DM.RFPENDTC" Value="2014-07-29T13:45"/>
         <ItemData ItemOID="DM.SITEID" Value="706"/>
         <ItemData ItemOID="DM.AGE" Value="64"/>
         <ItemData ItemOID="DM.AGEU" Value="YEARS"/>
         <ItemData ItemOID="DM.SEX" Value="F"/>
         <ItemData ItemOID="DM.RACE" Value="BLACK OR AFRICAN AMERICAN"/>
         <ItemData ItemOID="DM.ETHNIC" Value="NOT HISPANIC OR LATINO"/>
         <ItemData ItemOID="DM.ARMCD" Value="Pbo"/>
         <ItemData ItemOID="DM.ARM" Value="Placebo"/>
         <ItemData ItemOID="DM.ACTARMCD" Value="Pbo"/>
         <ItemData ItemOID="DM.ACTARM" Value="Placebo"/>
         <ItemData ItemOID="DM.COUNTRY" Value="USA"/>
         <ItemData ItemOID="DM.DMDTC" Value="2013-12-21"/>
         <ItemData ItemOID="DM.DMDY" Value="-10"/>
         <ItemData ItemOID="DM.COMPLT16" Value="Y"/>
         <ItemData ItemOID="DM.COMPLT24" Value="Y"/>
         <ItemData ItemOID="DM.COMPLT8" Value="Y"/>
         <ItemData ItemOID="DM.EFFICACY" Value="Y"/>
         <ItemData ItemOID="DM.ITT" Value="Y"/>
         <ItemData ItemOID="DM.SAFETY" Value="Y"/>
      </ItemGroupData>
      <ItemGroupData data:ItemGroupDataSeq="119" ItemGroupOID="DM">
         <ItemData ItemOID="DM.STUDYID" Value="CDISCPILOT01"/>
         <ItemData ItemOID="DM.DOMAIN" Value="DM"/>
         <ItemData ItemOID="DM.USUBJID" Value="01-706-1049"/>
         <ItemData ItemOID="DM.SUBJID" Value="1049"/>
         <ItemData ItemOID="DM.RFSTDTC" Value="2013-05-14"/>
         <ItemData ItemOID="DM.RFENDTC" Value="2013-06-25"/>
         <ItemData ItemOID="DM.RFXSTDTC" Value="2013-05-14"/>
         <ItemData ItemOID="DM.RFXENDTC" Value="2013-06-18"/>
         <ItemData ItemOID="DM.RFPENDTC" Value="2013-11-26"/>
         <ItemData ItemOID="DM.SITEID" Value="706"/>
         <ItemData ItemOID="DM.AGE" Value="60"/>
         <ItemData ItemOID="DM.AGEU" Value="YEARS"/>
         <ItemData ItemOID="DM.SEX" Value="F"/>
         <ItemData ItemOID="DM.RACE" Value="WHITE"/>
         <ItemData ItemOID="DM.ETHNIC" Value="NOT HISPANIC OR LATINO"/>
         <ItemData ItemOID="DM.ARMCD" Value="Xan_Hi"/>
         <ItemData ItemOID="DM.ARM" Value="Xanomeline High Dose"/>
         <ItemData ItemOID="DM.ACTARMCD" Value="Xan_Hi"/>
         <ItemData ItemOID="DM.ACTARM" Value="Xanomeline High Dose"/>
         <ItemData ItemOID="DM.COUNTRY" Value="USA"/>
         <ItemData ItemOID="DM.DMDTC" Value="2013-04-30"/>
         <ItemData ItemOID="DM.DMDY" Value="-14"/>
         <ItemData ItemOID="DM.EFFICACY" Value="Y"/>
         <ItemData ItemOID="DM.ITT" Value="Y"/>
         <ItemData ItemOID="DM.SAFETY" Value="Y"/>
      </ItemGroupData>
      <ItemGroupData data:ItemGroupDataSeq="120" ItemGroupOID="DM">
         <ItemData ItemOID="DM.STUDYID" Value="CDISCPILOT01"/>
         <ItemData ItemOID="DM.DOMAIN" Value="DM"/>
         <ItemData ItemOID="DM.USUBJID" Value="01-706-1384"/>
         <ItemData ItemOID="DM.SUBJID" Value="1384"/>
         <ItemData ItemOID="DM.RFSTDTC" Value="2012-09-15"/>
         <ItemData ItemOID="DM.RFENDTC" Value="2012-09-29"/>
         <ItemData ItemOID="DM.RFXSTDTC" Value="2012-09-15"/>
         <ItemData ItemOID="DM.RFXENDTC" Value="2012-09-24"/>
         <ItemData ItemOID="DM.RFPENDTC" Value="2013-06-22"/>
         <ItemData ItemOID="DM.SITEID" Value="706"/>
         <ItemData ItemOID="DM.AGE" Value="74"/>
         <ItemData ItemOID="DM.AGEU" Value="YEARS"/>
         <ItemData ItemOID="DM.SEX" Value="F"/>
         <ItemData ItemOID="DM.RACE" Value="WHITE"/>
         <ItemData ItemOID="DM.ETHNIC" Value="NOT HISPANIC OR LATINO"/>
         <ItemData ItemOID="DM.ARMCD" Value="Xan_Lo"/>
         <ItemData ItemOID="DM.ARM" Value="Xanomeline Low Dose"/>
         <ItemData ItemOID="DM.ACTARMCD" Value="Xan_Lo"/>
         <ItemData ItemOID="DM.ACTARM" Value="Xanomeline Low Dose"/>
         <ItemData ItemOID="DM.COUNTRY" Value="USA"/>
         <ItemData ItemOID="DM.DMDTC" Value="2012-08-25"/>
         <ItemData ItemOID="DM.DMDY" Value="-21"/>
         <ItemData ItemOID="DM.EFFICACY" Value="Y"/>
         <ItemData ItemOID="DM.ITT" Value="Y"/>
         <ItemData ItemOID="DM.SAFETY" Value="Y"/>
      </ItemGroupData>
      <ItemGroupData data:ItemGroupDataSeq="121" ItemGroupOID="DM">
         <ItemData ItemOID="DM.STUDYID" Value="CDISCPILOT01"/>
         <ItemData ItemOID="DM.DOMAIN" Value="DM"/>
         <ItemData ItemOID="DM.USUBJID" Value="01-707-1037"/>
         <ItemData ItemOID="DM.SUBJID" Value="1037"/>
         <ItemData ItemOID="DM.RFSTDTC" Value="2013-12-20"/>
         <ItemData ItemOID="DM.RFENDTC" Value="2014-01-08"/>
         <ItemData ItemOID="DM.RFXSTDTC" Value="2013-12-20"/>
         <ItemData ItemOID="DM.RFXENDTC" Value="2013-12-24"/>
         <ItemData ItemOID="DM.RFPENDTC" Value="2014-01-08T12:40"/>
         <ItemData ItemOID="DM.SITEID" Value="707"/>
         <ItemData ItemOID="DM.AGE" Value="72"/>
         <ItemData ItemOID="DM.AGEU" Value="YEARS"/>
         <ItemData ItemOID="DM.SEX" Value="F"/>
         <ItemData ItemOID="DM.RACE" Value="WHITE"/>
         <ItemData ItemOID="DM.ETHNIC" Value="NOT HISPANIC OR LATINO"/>
         <ItemData ItemOID="DM.ARMCD" Value="Xan_Lo"/>
         <ItemData ItemOID="DM.ARM" Value="Xanomeline Low Dose"/>
         <ItemData ItemOID="DM.ACTARMCD" Value="Xan_Lo"/>
         <ItemData ItemOID="DM.ACTARM" Value="Xanomeline Low Dose"/>
         <ItemData ItemOID="DM.COUNTRY" Value="USA"/>
         <ItemData ItemOID="DM.DMDTC" Value="2013-12-12"/>
         <ItemData ItemOID="DM.DMDY" Value="-8"/>
         <ItemData ItemOID="DM.EFFICACY" Value="Y"/>
         <ItemData ItemOID="DM.ITT" Value="Y"/>
         <ItemData ItemOID="DM.SAFETY" Value="Y"/>
      </ItemGroupData>
      <ItemGroupData data:ItemGroupDataSeq="122" ItemGroupOID="DM">
         <ItemData ItemOID="DM.STUDYID" Value="CDISCPILOT01"/>
         <ItemData ItemOID="DM.DOMAIN" Value="DM"/>
         <ItemData ItemOID="DM.USUBJID" Value="01-707-1206"/>
         <ItemData ItemOID="DM.SUBJID" Value="1206"/>
         <ItemData ItemOID="DM.RFSTDTC" Value="2013-10-28"/>
         <ItemData ItemOID="DM.RFENDTC" Value="2014-04-27"/>
         <ItemData ItemOID="DM.RFXSTDTC" Value="2013-10-28"/>
         <ItemData ItemOID="DM.RFXENDTC" Value="2014-04-26"/>
         <ItemData ItemOID="DM.RFPENDTC" Value="2014-04-27T08:00"/>
         <ItemData ItemOID="DM.SITEID" Value="707"/>
         <ItemData ItemOID="DM.AGE" Value="65"/>
         <ItemData ItemOID="DM.AGEU" Value="YEARS"/>
         <ItemData ItemOID="DM.SEX" Value="M"/>
         <ItemData ItemOID="DM.RACE" Value="WHITE"/>
         <ItemData ItemOID="DM.ETHNIC" Value="NOT HISPANIC OR LATINO"/>
         <ItemData ItemOID="DM.ARMCD" Value="Pbo"/>
         <ItemData ItemOID="DM.ARM" Value="Placebo"/>
         <ItemData ItemOID="DM.ACTARMCD" Value="Pbo"/>
         <ItemData ItemOID="DM.ACTARM" Value="Placebo"/>
         <ItemData ItemOID="DM.COUNTRY" Value="USA"/>
         <ItemData ItemOID="DM.DMDTC" Value="2013-10-20"/>
         <ItemData ItemOID="DM.DMDY" Value="-8"/>
         <ItemData ItemOID="DM.COMPLT16" Value="Y"/>
         <ItemData ItemOID="DM.COMPLT24" Value="Y"/>
         <ItemData ItemOID="DM.COMPLT8" Value="Y"/>
         <ItemData ItemOID="DM.EFFICACY" Value="Y"/>
         <ItemData ItemOID="DM.ITT" Value="Y"/>
         <ItemData ItemOID="DM.SAFETY" Value="Y"/>
      </ItemGroupData>
      <ItemGroupData data:ItemGroupDataSeq="123" ItemGroupOID="DM">
         <ItemData ItemOID="DM.STUDYID" Value="CDISCPILOT01"/>
         <ItemData ItemOID="DM.DOMAIN" Value="DM"/>
         <ItemData ItemOID="DM.USUBJID" Value="01-707-1276"/>
         <ItemData ItemOID="DM.SUBJID" Value="1276"/>
         <ItemData ItemOID="DM.RFPENDTC" Value="2012-10-29"/>
         <ItemData ItemOID="DM.SITEID" Value="707"/>
         <ItemData ItemOID="DM.AGE" Value="72"/>
         <ItemData ItemOID="DM.AGEU" Value="YEARS"/>
         <ItemData ItemOID="DM.SEX" Value="F"/>
         <ItemData ItemOID="DM.RACE" Value="WHITE"/>
         <ItemData ItemOID="DM.ETHNIC" Value="NOT HISPANIC OR LATINO"/>
         <ItemData ItemOID="DM.ARMCD" Value="Scrnfail"/>
         <ItemData ItemOID="DM.ARM" Value="Screen Failure"/>
         <ItemData ItemOID="DM.ACTARMCD" Value="Scrnfail"/>
         <ItemData ItemOID="DM.ACTARM" Value="Screen Failure"/>
         <ItemData ItemOID="DM.COUNTRY" Value="USA"/>
         <ItemData ItemOID="DM.DMDTC" Value="2012-10-12"/>
      </ItemGroupData>
      <ItemGroupData data:ItemGroupDataSeq="124" ItemGroupOID="DM">
         <ItemData ItemOID="DM.STUDYID" Value="CDISCPILOT01"/>
         <ItemData ItemOID="DM.DOMAIN" Value="DM"/>
         <ItemData ItemOID="DM.USUBJID" Value="01-707-1430"/>
         <ItemData ItemOID="DM.SUBJID" Value="1430"/>
         <ItemData ItemOID="DM.RFPENDTC" Value="2014-02-15"/>
         <ItemData ItemOID="DM.SITEID" Value="707"/>
         <ItemData ItemOID="DM.AGE" Value="81"/>
         <ItemData ItemOID="DM.AGEU" Value="YEARS"/>
         <ItemData ItemOID="DM.SEX" Value="F"/>
         <ItemData ItemOID="DM.RACE" Value="WHITE"/>
         <ItemData ItemOID="DM.ETHNIC" Value="NOT HISPANIC OR LATINO"/>
         <ItemData ItemOID="DM.ARMCD" Value="Scrnfail"/>
         <ItemData ItemOID="DM.ARM" Value="Screen Failure"/>
         <ItemData ItemOID="DM.ACTARMCD" Value="Scrnfail"/>
         <ItemData ItemOID="DM.ACTARM" Value="Screen Failure"/>
         <ItemData ItemOID="DM.COUNTRY" Value="USA"/>
         <ItemData ItemOID="DM.DMDTC" Value="2014-02-14"/>
      </ItemGroupData>
      <ItemGroupData data:ItemGroupDataSeq="125" ItemGroupOID="DM">
         <ItemData ItemOID="DM.STUDYID" Value="CDISCPILOT01"/>
         <ItemData ItemOID="DM.DOMAIN" Value="DM"/>
         <ItemData ItemOID="DM.USUBJID" Value="01-707-1434"/>
         <ItemData ItemOID="DM.SUBJID" Value="1434"/>
         <ItemData ItemOID="DM.RFPENDTC" Value="2013-07-29"/>
         <ItemData ItemOID="DM.SITEID" Value="707"/>
         <ItemData ItemOID="DM.AGE" Value="76"/>
         <ItemData ItemOID="DM.AGEU" Value="YEARS"/>
         <ItemData ItemOID="DM.SEX" Value="F"/>
         <ItemData ItemOID="DM.RACE" Value="WHITE"/>
         <ItemData ItemOID="DM.ETHNIC" Value="NOT HISPANIC OR LATINO"/>
         <ItemData ItemOID="DM.ARMCD" Value="Scrnfail"/>
         <ItemData ItemOID="DM.ARM" Value="Screen Failure"/>
         <ItemData ItemOID="DM.ACTARMCD" Value="Scrnfail"/>
         <ItemData ItemOID="DM.ACTARM" Value="Screen Failure"/>
         <ItemData ItemOID="DM.COUNTRY" Value="USA"/>
         <ItemData ItemOID="DM.DMDTC" Value="2013-07-25"/>
      </ItemGroupData>
      <ItemGroupData data:ItemGroupDataSeq="126" ItemGroupOID="DM">
         <ItemData ItemOID="DM.STUDYID" Value="CDISCPILOT01"/>
         <ItemData ItemOID="DM.DOMAIN" Value="DM"/>
         <ItemData ItemOID="DM.USUBJID" Value="01-708-1013"/>
         <ItemData ItemOID="DM.SUBJID" Value="1013"/>
         <ItemData ItemOID="DM.RFPENDTC" Value="2012-11-09"/>
         <ItemData ItemOID="DM.SITEID" Value="708"/>
         <ItemData ItemOID="DM.AGE" Value="80"/>
         <ItemData ItemOID="DM.AGEU" Value="YEARS"/>
         <ItemData ItemOID="DM.SEX" Value="M"/>
         <ItemData ItemOID="DM.RACE" Value="WHITE"/>
         <ItemData ItemOID="DM.ETHNIC" Value="NOT HISPANIC OR LATINO"/>
         <ItemData ItemOID="DM.ARMCD" Value="Scrnfail"/>
         <ItemData ItemOID="DM.ARM" Value="Screen Failure"/>
         <ItemData ItemOID="DM.ACTARMCD" Value="Scrnfail"/>
         <ItemData ItemOID="DM.ACTARM" Value="Screen Failure"/>
         <ItemData ItemOID="DM.COUNTRY" Value="USA"/>
         <ItemData ItemOID="DM.DMDTC" Value="2012-10-13"/>
      </ItemGroupData>
      <ItemGroupData data:ItemGroupDataSeq="127" ItemGroupOID="DM">
         <ItemData ItemOID="DM.STUDYID" Value="CDISCPILOT01"/>
         <ItemData ItemOID="DM.DOMAIN" Value="DM"/>
         <ItemData ItemOID="DM.USUBJID" Value="01-708-1019"/>
         <ItemData ItemOID="DM.SUBJID" Value="1019"/>
         <ItemData ItemOID="DM.RFSTDTC" Value="2013-12-20"/>
         <ItemData ItemOID="DM.RFENDTC" Value="2014-01-23"/>
         <ItemData ItemOID="DM.RFXSTDTC" Value="2013-12-20"/>
         <ItemData ItemOID="DM.RFXENDTC" Value="2014-01-01"/>
         <ItemData ItemOID="DM.RFPENDTC" Value="2014-01-23T10:10"/>
         <ItemData ItemOID="DM.SITEID" Value="708"/>
         <ItemData ItemOID="DM.AGE" Value="68"/>
         <ItemData ItemOID="DM.AGEU" Value="YEARS"/>
         <ItemData ItemOID="DM.SEX" Value="M"/>
         <ItemData ItemOID="DM.RACE" Value="WHITE"/>
         <ItemData ItemOID="DM.ETHNIC" Value="NOT HISPANIC OR LATINO"/>
         <ItemData ItemOID="DM.ARMCD" Value="Xan_Lo"/>
         <ItemData ItemOID="DM.ARM" Value="Xanomeline Low Dose"/>
         <ItemData ItemOID="DM.ACTARMCD" Value="Xan_Lo"/>
         <ItemData ItemOID="DM.ACTARM" Value="Xanomeline Low Dose"/>
         <ItemData ItemOID="DM.COUNTRY" Value="USA"/>
         <ItemData ItemOID="DM.DMDTC" Value="2013-12-10"/>
         <ItemData ItemOID="DM.DMDY" Value="-10"/>
         <ItemData ItemOID="DM.EFFICACY" Value="Y"/>
         <ItemData ItemOID="DM.ITT" Value="Y"/>
         <ItemData ItemOID="DM.SAFETY" Value="Y"/>
      </ItemGroupData>
      <ItemGroupData data:ItemGroupDataSeq="128" ItemGroupOID="DM">
         <ItemData ItemOID="DM.STUDYID" Value="CDISCPILOT01"/>
         <ItemData ItemOID="DM.DOMAIN" Value="DM"/>
         <ItemData ItemOID="DM.USUBJID" Value="01-708-1032"/>
         <ItemData ItemOID="DM.SUBJID" Value="1032"/>
         <ItemData ItemOID="DM.RFSTDTC" Value="2013-02-09"/>
         <ItemData ItemOID="DM.RFENDTC" Value="2013-03-09"/>
         <ItemData ItemOID="DM.RFXSTDTC" Value="2013-02-09"/>
         <ItemData ItemOID="DM.RFXENDTC" Value="2013-03-01"/>
         <ItemData ItemOID="DM.RFPENDTC" Value="2013-03-09T10:45"/>
         <ItemData ItemOID="DM.SITEID" Value="708"/>
         <ItemData ItemOID="DM.AGE" Value="62"/>
         <ItemData ItemOID="DM.AGEU" Value="YEARS"/>
         <ItemData ItemOID="DM.SEX" Value="M"/>
         <ItemData ItemOID="DM.RACE" Value="WHITE"/>
         <ItemData ItemOID="DM.ETHNIC" Value="NOT HISPANIC OR LATINO"/>
         <ItemData ItemOID="DM.ARMCD" Value="Xan_Lo"/>
         <ItemData ItemOID="DM.ARM" Value="Xanomeline Low Dose"/>
         <ItemData ItemOID="DM.ACTARMCD" Value="Xan_Lo"/>
         <ItemData ItemOID="DM.ACTARM" Value="Xanomeline Low Dose"/>
         <ItemData ItemOID="DM.COUNTRY" Value="USA"/>
         <ItemData ItemOID="DM.DMDTC" Value="2013-02-02"/>
         <ItemData ItemOID="DM.DMDY" Value="-7"/>
         <ItemData ItemOID="DM.EFFICACY" Value="Y"/>
         <ItemData ItemOID="DM.ITT" Value="Y"/>
         <ItemData ItemOID="DM.SAFETY" Value="Y"/>
      </ItemGroupData>
      <ItemGroupData data:ItemGroupDataSeq="129" ItemGroupOID="DM">
         <ItemData ItemOID="DM.STUDYID" Value="CDISCPILOT01"/>
         <ItemData ItemOID="DM.DOMAIN" Value="DM"/>
         <ItemData ItemOID="DM.USUBJID" Value="01-708-1054"/>
         <ItemData ItemOID="DM.SUBJID" Value="1054"/>
         <ItemData ItemOID="DM.RFPENDTC" Value="2014-03-05"/>
         <ItemData ItemOID="DM.SITEID" Value="708"/>
         <ItemData ItemOID="DM.AGE" Value="73"/>
         <ItemData ItemOID="DM.AGEU" Value="YEARS"/>
         <ItemData ItemOID="DM.SEX" Value="F"/>
         <ItemData ItemOID="DM.RACE" Value="BLACK OR AFRICAN AMERICAN"/>
         <ItemData ItemOID="DM.ETHNIC" Value="NOT HISPANIC OR LATINO"/>
         <ItemData ItemOID="DM.ARMCD" Value="Scrnfail"/>
         <ItemData ItemOID="DM.ARM" Value="Screen Failure"/>
         <ItemData ItemOID="DM.ACTARMCD" Value="Scrnfail"/>
         <ItemData ItemOID="DM.ACTARM" Value="Screen Failure"/>
         <ItemData ItemOID="DM.COUNTRY" Value="USA"/>
         <ItemData ItemOID="DM.DMDTC" Value="2014-02-14"/>
      </ItemGroupData>
      <ItemGroupData data:ItemGroupDataSeq="130" ItemGroupOID="DM">
         <ItemData ItemOID="DM.STUDYID" Value="CDISCPILOT01"/>
         <ItemData ItemOID="DM.DOMAIN" Value="DM"/>
         <ItemData ItemOID="DM.USUBJID" Value="01-708-1067"/>
         <ItemData ItemOID="DM.SUBJID" Value="1067"/>
         <ItemData ItemOID="DM.RFPENDTC" Value="2013-03-07"/>
         <ItemData ItemOID="DM.SITEID" Value="708"/>
         <ItemData ItemOID="DM.AGE" Value="88"/>
         <ItemData ItemOID="DM.AGEU" Value="YEARS"/>
         <ItemData ItemOID="DM.SEX" Value="M"/>
         <ItemData ItemOID="DM.RACE" Value="WHITE"/>
         <ItemData ItemOID="DM.ETHNIC" Value="NOT HISPANIC OR LATINO"/>
         <ItemData ItemOID="DM.ARMCD" Value="Scrnfail"/>
         <ItemData ItemOID="DM.ARM" Value="Screen Failure"/>
         <ItemData ItemOID="DM.ACTARMCD" Value="Scrnfail"/>
         <ItemData ItemOID="DM.ACTARM" Value="Screen Failure"/>
         <ItemData ItemOID="DM.COUNTRY" Value="USA"/>
         <ItemData ItemOID="DM.DMDTC" Value="2013-02-07"/>
      </ItemGroupData>
      <ItemGroupData data:ItemGroupDataSeq="131" ItemGroupOID="DM">
         <ItemData ItemOID="DM.STUDYID" Value="CDISCPILOT01"/>
         <ItemData ItemOID="DM.DOMAIN" Value="DM"/>
         <ItemData ItemOID="DM.USUBJID" Value="01-708-1084"/>
         <ItemData ItemOID="DM.SUBJID" Value="1084"/>
         <ItemData ItemOID="DM.RFSTDTC" Value="2013-05-09"/>
         <ItemData ItemOID="DM.RFENDTC" Value="2013-11-11"/>
         <ItemData ItemOID="DM.RFXSTDTC" Value="2013-05-09"/>
         <ItemData ItemOID="DM.RFXENDTC" Value="2013-11-11"/>
         <ItemData ItemOID="DM.RFPENDTC" Value="2013-11-11T10:00"/>
         <ItemData ItemOID="DM.SITEID" Value="708"/>
         <ItemData ItemOID="DM.AGE" Value="73"/>
         <ItemData ItemOID="DM.AGEU" Value="YEARS"/>
         <ItemData ItemOID="DM.SEX" Value="F"/>
         <ItemData ItemOID="DM.RACE" Value="WHITE"/>
         <ItemData ItemOID="DM.ETHNIC" Value="NOT HISPANIC OR LATINO"/>
         <ItemData ItemOID="DM.ARMCD" Value="Xan_Lo"/>
         <ItemData ItemOID="DM.ARM" Value="Xanomeline Low Dose"/>
         <ItemData ItemOID="DM.ACTARMCD" Value="Xan_Lo"/>
         <ItemData ItemOID="DM.ACTARM" Value="Xanomeline Low Dose"/>
         <ItemData ItemOID="DM.COUNTRY" Value="USA"/>
         <ItemData ItemOID="DM.DMDTC" Value="2013-05-01"/>
         <ItemData ItemOID="DM.DMDY" Value="-8"/>
         <ItemData ItemOID="DM.COMPLT16" Value="Y"/>
         <ItemData ItemOID="DM.COMPLT24" Value="Y"/>
         <ItemData ItemOID="DM.COMPLT8" Value="Y"/>
         <ItemData ItemOID="DM.EFFICACY" Value="Y"/>
         <ItemData ItemOID="DM.ITT" Value="Y"/>
         <ItemData ItemOID="DM.SAFETY" Value="Y"/>
      </ItemGroupData>
      <ItemGroupData data:ItemGroupDataSeq="132" ItemGroupOID="DM">
         <ItemData ItemOID="DM.STUDYID" Value="CDISCPILOT01"/>
         <ItemData ItemOID="DM.DOMAIN" Value="DM"/>
         <ItemData ItemOID="DM.USUBJID" Value="01-708-1087"/>
         <ItemData ItemOID="DM.SUBJID" Value="1087"/>
         <ItemData ItemOID="DM.RFSTDTC" Value="2012-10-22"/>
         <ItemData ItemOID="DM.RFENDTC" Value="2013-04-28"/>
         <ItemData ItemOID="DM.RFXSTDTC" Value="2012-10-22"/>
         <ItemData ItemOID="DM.RFXENDTC" Value="2013-04-28"/>
         <ItemData ItemOID="DM.RFPENDTC" Value="2013-04-28T12:40"/>
         <ItemData ItemOID="DM.SITEID" Value="708"/>
         <ItemData ItemOID="DM.AGE" Value="74"/>
         <ItemData ItemOID="DM.AGEU" Value="YEARS"/>
         <ItemData ItemOID="DM.SEX" Value="F"/>
         <ItemData ItemOID="DM.RACE" Value="WHITE"/>
         <ItemData ItemOID="DM.ETHNIC" Value="NOT HISPANIC OR LATINO"/>
         <ItemData ItemOID="DM.ARMCD" Value="Pbo"/>
         <ItemData ItemOID="DM.ARM" Value="Placebo"/>
         <ItemData ItemOID="DM.ACTARMCD" Value="Pbo"/>
         <ItemData ItemOID="DM.ACTARM" Value="Placebo"/>
         <ItemData ItemOID="DM.COUNTRY" Value="USA"/>
         <ItemData ItemOID="DM.DMDTC" Value="2012-10-06"/>
         <ItemData ItemOID="DM.DMDY" Value="-16"/>
         <ItemData ItemOID="DM.COMPLT16" Value="Y"/>
         <ItemData ItemOID="DM.COMPLT24" Value="Y"/>
         <ItemData ItemOID="DM.COMPLT8" Value="Y"/>
         <ItemData ItemOID="DM.EFFICACY" Value="Y"/>
         <ItemData ItemOID="DM.ITT" Value="Y"/>
