<?xml version="1.0" encoding="UTF-8"?>
<ODM xmlns:data="http://www.cdisc.org/ns/Dataset-XML/v1.0"
     xmlns="http://www.cdisc.org/ns/odm/v1.3"
     data:DatasetXMLVersion="1.0.0"
     ODMVersion="1.3.2"
     FileType="Snapshot"
     FileOID="SDTM-XML"
     CreationDateTime="2012-12-08T23:06:03.046+01:00">
   <ClinicalData StudyOID="LZZT" MetaDataVersionOID="CDISC.SDTM.3.1.0">
      <ItemGroupData data:ItemGroupDataSeq="1" ItemGroupOID="DS">
         <ItemData ItemOID="DS.STUDYID" Value="CDISCPILOT01"/>
         <ItemData ItemOID="DS.DOMAIN" Value="DS"/>
         <ItemData ItemOID="DS.USUBJID" Value="01-701-1015"/>
         <ItemData ItemOID="DS.DSSEQ" Value="1"/>
         <ItemData ItemOID="DS.DSTERM" Value="PROTOCOL COMPLETED"/>
         <ItemData ItemOID="DS.DSDECOD" Value="COMPLETED"/>
         <ItemData ItemOID="DS.DSCAT" Value="DISPOSITION EVENT"/>
         <ItemData ItemOID="DS.VISITNUM" Value="13"/>
         <ItemData ItemOID="DS.VISIT" Value="WEEK 26"/>
         <ItemData ItemOID="DS.DSDTC" Value="2014-07-02"/>
         <ItemData ItemOID="DS.DSSTDTC" Value="2014-07-02"/>
         <ItemData ItemOID="DS.DSSTDY" Value="182"/>
      </ItemGroupData>
      <ItemGroupData data:ItemGroupDataSeq="2" ItemGroupOID="DS">
         <ItemData ItemOID="DS.STUDYID" Value="CDISCPILOT01"/>
         <ItemData ItemOID="DS.DOMAIN" Value="DS"/>
         <ItemData ItemOID="DS.USUBJID" Value="01-701-1015"/>
         <ItemData ItemOID="DS.DSSEQ" Value="2"/>
         <ItemData ItemOID="DS.DSTERM" Value="FINAL LAB VISIT"/>
         <ItemData ItemOID="DS.DSDECOD" Value="FINAL LAB VISIT"/>
         <ItemData ItemOID="DS.DSCAT" Value="OTHER EVENT"/>
         <ItemData ItemOID="DS.VISITNUM" Value="13"/>
         <ItemData ItemOID="DS.VISIT" Value="WEEK 26"/>
         <ItemData ItemOID="DS.DSDTC" Value="2014-07-02T11:45"/>
         <ItemData ItemOID="DS.DSSTDTC" Value="2014-07-02"/>
         <ItemData ItemOID="DS.DSSTDY" Value="182"/>
      </ItemGroupData>
      <ItemGroupData data:ItemGroupDataSeq="3" ItemGroupOID="DS">
         <ItemData ItemOID="DS.STUDYID" Value="CDISCPILOT01"/>
         <ItemData ItemOID="DS.DOMAIN" Value="DS"/>
         <ItemData ItemOID="DS.USUBJID" Value="01-701-1023"/>
         <ItemData ItemOID="DS.DSSEQ" Value="1"/>
         <ItemData ItemOID="DS.DSSPID" Value="24"/>
         <ItemData ItemOID="DS.DSTERM" Value="ADVERSE EVENT"/>
         <ItemData ItemOID="DS.DSDECOD" Value="ADVERSE EVENT"/>
         <ItemData ItemOID="DS.DSCAT" Value="DISPOSITION EVENT"/>
         <ItemData ItemOID="DS.VISITNUM" Value="5"/>
         <ItemData ItemOID="DS.VISIT" Value="WEEK 4"/>
         <ItemData ItemOID="DS.DSDTC" Value="2012-09-02"/>
         <ItemData ItemOID="DS.DSSTDTC" Value="2012-09-02"/>
         <ItemData ItemOID="DS.DSSTDY" Value="29"/>
      </ItemGroupData>
      <ItemGroupData data:ItemGroupDataSeq="4" ItemGroupOID="DS">
         <ItemData ItemOID="DS.STUDYID" Value="CDISCPILOT01"/>
         <ItemData ItemOID="DS.DOMAIN" Value="DS"/>
         <ItemData ItemOID="DS.USUBJID" Value="01-701-1023"/>
         <ItemData ItemOID="DS.DSSEQ" Value="2"/>
         <ItemData ItemOID="DS.DSTERM" Value="FINAL LAB VISIT"/>
         <ItemData ItemOID="DS.DSDECOD" Value="FINAL LAB VISIT"/>
         <ItemData ItemOID="DS.DSCAT" Value="OTHER EVENT"/>
         <ItemData ItemOID="DS.VISITNUM" Value="5"/>
         <ItemData ItemOID="DS.VISIT" Value="WEEK 4"/>
         <ItemData ItemOID="DS.DSDTC" Value="2012-09-02T10:15"/>
         <ItemData ItemOID="DS.DSSTDTC" Value="2012-09-02"/>
         <ItemData ItemOID="DS.DSSTDY" Value="29"/>
      </ItemGroupData>
      <ItemGroupData data:ItemGroupDataSeq="5" ItemGroupOID="DS">
         <ItemData ItemOID="DS.STUDYID" Value="CDISCPILOT01"/>
         <ItemData ItemOID="DS.DOMAIN" Value="DS"/>
         <ItemData ItemOID="DS.USUBJID" Value="01-701-1023"/>
         <ItemData ItemOID="DS.DSSEQ" Value="3"/>
         <ItemData ItemOID="DS.DSTERM" Value="FINAL RETRIEVAL VISIT"/>
         <ItemData ItemOID="DS.DSDECOD" Value="FINAL RETRIEVAL VISIT"/>
         <ItemData ItemOID="DS.DSCAT" Value="OTHER EVENT"/>
         <ItemData ItemOID="DS.VISITNUM" Value="201"/>
         <ItemData ItemOID="DS.VISIT" Value="RETRIEVAL"/>
         <ItemData ItemOID="DS.DSDTC" Value="2013-02-18"/>
         <ItemData ItemOID="DS.DSSTDTC" Value="2013-02-18"/>
         <ItemData ItemOID="DS.DSSTDY" Value="198"/>
      </ItemGroupData>
      <ItemGroupData data:ItemGroupDataSeq="6" ItemGroupOID="DS">
         <ItemData ItemOID="DS.STUDYID" Value="CDISCPILOT01"/>
         <ItemData ItemOID="DS.DOMAIN" Value="DS"/>
         <ItemData ItemOID="DS.USUBJID" Value="01-701-1028"/>
         <ItemData ItemOID="DS.DSSEQ" Value="1"/>
         <ItemData ItemOID="DS.DSTERM" Value="PROTOCOL COMPLETED"/>
         <ItemData ItemOID="DS.DSDECOD" Value="COMPLETED"/>
         <ItemData ItemOID="DS.DSCAT" Value="DISPOSITION EVENT"/>
         <ItemData ItemOID="DS.VISITNUM" Value="13"/>
         <ItemData ItemOID="DS.VISIT" Value="WEEK 26"/>
         <ItemData ItemOID="DS.DSDTC" Value="2014-01-14"/>
         <ItemData ItemOID="DS.DSSTDTC" Value="2014-01-14"/>
         <ItemData ItemOID="DS.DSSTDY" Value="180"/>
      </ItemGroupData>
      <ItemGroupData data:ItemGroupDataSeq="7" ItemGroupOID="DS">
         <ItemData ItemOID="DS.STUDYID" Value="CDISCPILOT01"/>
         <ItemData ItemOID="DS.DOMAIN" Value="DS"/>
         <ItemData ItemOID="DS.USUBJID" Value="01-701-1028"/>
         <ItemData ItemOID="DS.DSSEQ" Value="2"/>
         <ItemData ItemOID="DS.DSTERM" Value="FINAL LAB VISIT"/>
         <ItemData ItemOID="DS.DSDECOD" Value="FINAL LAB VISIT"/>
         <ItemData ItemOID="DS.DSCAT" Value="OTHER EVENT"/>
         <ItemData ItemOID="DS.VISITNUM" Value="13"/>
         <ItemData ItemOID="DS.VISIT" Value="WEEK 26"/>
         <ItemData ItemOID="DS.DSDTC" Value="2014-01-14T11:10"/>
         <ItemData ItemOID="DS.DSSTDTC" Value="2014-01-14"/>
         <ItemData ItemOID="DS.DSSTDY" Value="180"/>
      </ItemGroupData>
      <ItemGroupData data:ItemGroupDataSeq="8" ItemGroupOID="DS">
         <ItemData ItemOID="DS.STUDYID" Value="CDISCPILOT01"/>
         <ItemData ItemOID="DS.DOMAIN" Value="DS"/>
         <ItemData ItemOID="DS.USUBJID" Value="01-701-1033"/>
         <ItemData ItemOID="DS.DSSEQ" Value="1"/>
         <ItemData ItemOID="DS.DSTERM"
                   Value="SPONSOR DECISION (STUDY OR PATIENT DISCONTINUED BY THE SPONSOR)"/>
         <ItemData ItemOID="DS.DSDECOD" Value="STUDY TERMINATED BY SPONSOR"/>
         <ItemData ItemOID="DS.DSCAT" Value="DISPOSITION EVENT"/>
         <ItemData ItemOID="DS.VISITNUM" Value="5"/>
         <ItemData ItemOID="DS.VISIT" Value="WEEK 4"/>
         <ItemData ItemOID="DS.DSDTC" Value="2014-04-14"/>
         <ItemData ItemOID="DS.DSSTDTC" Value="2014-04-14"/>
         <ItemData ItemOID="DS.DSSTDY" Value="28"/>
      </ItemGroupData>
      <ItemGroupData data:ItemGroupDataSeq="9" ItemGroupOID="DS">
         <ItemData ItemOID="DS.STUDYID" Value="CDISCPILOT01"/>
         <ItemData ItemOID="DS.DOMAIN" Value="DS"/>
         <ItemData ItemOID="DS.USUBJID" Value="01-701-1033"/>
         <ItemData ItemOID="DS.DSSEQ" Value="2"/>
         <ItemData ItemOID="DS.DSTERM" Value="FINAL LAB VISIT"/>
         <ItemData ItemOID="DS.DSDECOD" Value="FINAL LAB VISIT"/>
         <ItemData ItemOID="DS.DSCAT" Value="OTHER EVENT"/>
         <ItemData ItemOID="DS.VISITNUM" Value="5"/>
         <ItemData ItemOID="DS.VISIT" Value="WEEK 4"/>
         <ItemData ItemOID="DS.DSDTC" Value="2014-04-14T10:38"/>
         <ItemData ItemOID="DS.DSSTDTC" Value="2014-04-14"/>
         <ItemData ItemOID="DS.DSSTDY" Value="28"/>
      </ItemGroupData>
      <ItemGroupData data:ItemGroupDataSeq="10" ItemGroupOID="DS">
         <ItemData ItemOID="DS.STUDYID" Value="CDISCPILOT01"/>
         <ItemData ItemOID="DS.DOMAIN" Value="DS"/>
         <ItemData ItemOID="DS.USUBJID" Value="01-701-1033"/>
         <ItemData ItemOID="DS.DSSEQ" Value="3"/>
         <ItemData ItemOID="DS.DSTERM" Value="FINAL RETRIEVAL VISIT"/>
         <ItemData ItemOID="DS.DSDECOD" Value="FINAL RETRIEVAL VISIT"/>
         <ItemData ItemOID="DS.DSCAT" Value="OTHER EVENT"/>
         <ItemData ItemOID="DS.VISITNUM" Value="201"/>
         <ItemData ItemOID="DS.VISIT" Value="RETRIEVAL"/>
         <ItemData ItemOID="DS.DSDTC" Value="2014-09-15"/>
         <ItemData ItemOID="DS.DSSTDTC" Value="2014-09-15"/>
         <ItemData ItemOID="DS.DSSTDY" Value="182"/>
      </ItemGroupData>
      <ItemGroupData data:ItemGroupDataSeq="11" ItemGroupOID="DS">
         <ItemData ItemOID="DS.STUDYID" Value="CDISCPILOT01"/>
         <ItemData ItemOID="DS.DOMAIN" Value="DS"/>
         <ItemData ItemOID="DS.USUBJID" Value="01-701-1034"/>
         <ItemData ItemOID="DS.DSSEQ" Value="1"/>
         <ItemData ItemOID="DS.DSTERM" Value="PROTOCOL COMPLETED"/>
         <ItemData ItemOID="DS.DSDECOD" Value="COMPLETED"/>
         <ItemData ItemOID="DS.DSCAT" Value="DISPOSITION EVENT"/>
         <ItemData ItemOID="DS.VISITNUM" Value="13"/>
         <ItemData ItemOID="DS.VISIT" Value="WEEK 26"/>
         <ItemData ItemOID="DS.DSDTC" Value="2014-12-30"/>
         <ItemData ItemOID="DS.DSSTDTC" Value="2014-12-30"/>
         <ItemData ItemOID="DS.DSSTDY" Value="183"/>
      </ItemGroupData>
      <ItemGroupData data:ItemGroupDataSeq="12" ItemGroupOID="DS">
         <ItemData ItemOID="DS.STUDYID" Value="CDISCPILOT01"/>
         <ItemData ItemOID="DS.DOMAIN" Value="DS"/>
         <ItemData ItemOID="DS.USUBJID" Value="01-701-1034"/>
         <ItemData ItemOID="DS.DSSEQ" Value="2"/>
         <ItemData ItemOID="DS.DSTERM" Value="FINAL LAB VISIT"/>
         <ItemData ItemOID="DS.DSDECOD" Value="FINAL LAB VISIT"/>
         <ItemData ItemOID="DS.DSCAT" Value="OTHER EVENT"/>
         <ItemData ItemOID="DS.VISITNUM" Value="13"/>
         <ItemData ItemOID="DS.VISIT" Value="WEEK 26"/>
         <ItemData ItemOID="DS.DSDTC" Value="2014-12-30T09:50"/>
         <ItemData ItemOID="DS.DSSTDTC" Value="2014-12-30"/>
         <ItemData ItemOID="DS.DSSTDY" Value="183"/>
      </ItemGroupData>
      <ItemGroupData data:ItemGroupDataSeq="13" ItemGroupOID="DS">
         <ItemData ItemOID="DS.STUDYID" Value="CDISCPILOT01"/>
         <ItemData ItemOID="DS.DOMAIN" Value="DS"/>
         <ItemData ItemOID="DS.USUBJID" Value="01-701-1047"/>
         <ItemData ItemOID="DS.DSSEQ" Value="1"/>
         <ItemData ItemOID="DS.DSSPID" Value="17"/>
         <ItemData ItemOID="DS.DSTERM" Value="ADVERSE EVENT"/>
         <ItemData ItemOID="DS.DSDECOD" Value="ADVERSE EVENT"/>
         <ItemData ItemOID="DS.DSCAT" Value="DISPOSITION EVENT"/>
         <ItemData ItemOID="DS.VISITNUM" Value="6"/>
         <ItemData ItemOID="DS.VISIT" Value="AMBUL ECG REMOVAL"/>
         <ItemData ItemOID="DS.DSDTC" Value="2013-03-29"/>
         <ItemData ItemOID="DS.DSSTDTC" Value="2013-03-29"/>
         <ItemData ItemOID="DS.DSSTDY" Value="46"/>
      </ItemGroupData>
      <ItemGroupData data:ItemGroupDataSeq="14" ItemGroupOID="DS">
         <ItemData ItemOID="DS.STUDYID" Value="CDISCPILOT01"/>
         <ItemData ItemOID="DS.DOMAIN" Value="DS"/>
         <ItemData ItemOID="DS.USUBJID" Value="01-701-1047"/>
         <ItemData ItemOID="DS.DSSEQ" Value="2"/>
         <ItemData ItemOID="DS.DSTERM" Value="FINAL LAB VISIT"/>
         <ItemData ItemOID="DS.DSDECOD" Value="FINAL LAB VISIT"/>
         <ItemData ItemOID="DS.DSCAT" Value="OTHER EVENT"/>
         <ItemData ItemOID="DS.VISITNUM" Value="6.1"/>
         <ItemData ItemOID="DS.VISIT" Value="UNSCHEDULED 6.1"/>
         <ItemData ItemOID="DS.DSDTC" Value="2013-04-07T11:20"/>
         <ItemData ItemOID="DS.DSSTDTC" Value="2013-04-07"/>
         <ItemData ItemOID="DS.DSSTDY" Value="55"/>
      </ItemGroupData>
      <ItemGroupData data:ItemGroupDataSeq="15" ItemGroupOID="DS">
         <ItemData ItemOID="DS.STUDYID" Value="CDISCPILOT01"/>
         <ItemData ItemOID="DS.DOMAIN" Value="DS"/>
         <ItemData ItemOID="DS.USUBJID" Value="01-701-1047"/>
         <ItemData ItemOID="DS.DSSEQ" Value="3"/>
         <ItemData ItemOID="DS.DSTERM" Value="FINAL RETRIEVAL VISIT"/>
         <ItemData ItemOID="DS.DSDECOD" Value="FINAL RETRIEVAL VISIT"/>
         <ItemData ItemOID="DS.DSCAT" Value="OTHER EVENT"/>
         <ItemData ItemOID="DS.VISITNUM" Value="201"/>
         <ItemData ItemOID="DS.VISIT" Value="RETRIEVAL"/>
         <ItemData ItemOID="DS.DSDTC" Value="2013-07-28"/>
         <ItemData ItemOID="DS.DSSTDTC" Value="2013-07-28"/>
         <ItemData ItemOID="DS.DSSTDY" Value="167"/>
      </ItemGroupData>
      <ItemGroupData data:ItemGroupDataSeq="16" ItemGroupOID="DS">
         <ItemData ItemOID="DS.STUDYID" Value="CDISCPILOT01"/>
         <ItemData ItemOID="DS.DOMAIN" Value="DS"/>
         <ItemData ItemOID="DS.USUBJID" Value="01-701-1057"/>
         <ItemData ItemOID="DS.DSSEQ" Value="1"/>
         <ItemData ItemOID="DS.DSTERM" Value="SCREEN FAILURE"/>
         <ItemData ItemOID="DS.DSDECOD" Value="SCREEN FAILURE"/>
         <ItemData ItemOID="DS.DSCAT" Value="DISPOSITION EVENT"/>
         <ItemData ItemOID="DS.VISITNUM" Value="1"/>
         <ItemData ItemOID="DS.VISIT" Value="SCREENING 1"/>
         <ItemData ItemOID="DS.DSDTC" Value="2013-12-20"/>
         <ItemData ItemOID="DS.DSSTDTC" Value="2013-12-20"/>
      </ItemGroupData>
      <ItemGroupData data:ItemGroupDataSeq="17" ItemGroupOID="DS">
         <ItemData ItemOID="DS.STUDYID" Value="CDISCPILOT01"/>
         <ItemData ItemOID="DS.DOMAIN" Value="DS"/>
         <ItemData ItemOID="DS.USUBJID" Value="01-701-1097"/>
         <ItemData ItemOID="DS.DSSEQ" Value="1"/>
         <ItemData ItemOID="DS.DSTERM" Value="PROTOCOL COMPLETED"/>
         <ItemData ItemOID="DS.DSDECOD" Value="COMPLETED"/>
         <ItemData ItemOID="DS.DSCAT" Value="DISPOSITION EVENT"/>
         <ItemData ItemOID="DS.VISITNUM" Value="13"/>
         <ItemData ItemOID="DS.VISIT" Value="WEEK 26"/>
         <ItemData ItemOID="DS.DSDTC" Value="2014-07-09"/>
         <ItemData ItemOID="DS.DSSTDTC" Value="2014-07-09"/>
         <ItemData ItemOID="DS.DSSTDY" Value="190"/>
      </ItemGroupData>
      <ItemGroupData data:ItemGroupDataSeq="18" ItemGroupOID="DS">
         <ItemData ItemOID="DS.STUDYID" Value="CDISCPILOT01"/>
         <ItemData ItemOID="DS.DOMAIN" Value="DS"/>
         <ItemData ItemOID="DS.USUBJID" Value="01-701-1097"/>
         <ItemData ItemOID="DS.DSSEQ" Value="2"/>
         <ItemData ItemOID="DS.DSTERM" Value="FINAL LAB VISIT"/>
         <ItemData ItemOID="DS.DSDECOD" Value="FINAL LAB VISIT"/>
         <ItemData ItemOID="DS.DSCAT" Value="OTHER EVENT"/>
         <ItemData ItemOID="DS.VISITNUM" Value="13"/>
         <ItemData ItemOID="DS.VISIT" Value="WEEK 26"/>
         <ItemData ItemOID="DS.DSDTC" Value="2014-07-09T09:39"/>
         <ItemData ItemOID="DS.DSSTDTC" Value="2014-07-09"/>
         <ItemData ItemOID="DS.DSSTDY" Value="190"/>
      </ItemGroupData>
      <ItemGroupData data:ItemGroupDataSeq="19" ItemGroupOID="DS">
         <ItemData ItemOID="DS.STUDYID" Value="CDISCPILOT01"/>
         <ItemData ItemOID="DS.DOMAIN" Value="DS"/>
         <ItemData ItemOID="DS.USUBJID" Value="01-701-1111"/>
         <ItemData ItemOID="DS.DSSEQ" Value="1"/>
         <ItemData ItemOID="DS.DSSPID" Value="32"/>
         <ItemData ItemOID="DS.DSTERM" Value="ADVERSE EVENT"/>
         <ItemData ItemOID="DS.DSDECOD" Value="ADVERSE EVENT"/>
         <ItemData ItemOID="DS.DSCAT" Value="DISPOSITION EVENT"/>
         <ItemData ItemOID="DS.VISITNUM" Value="4"/>
         <ItemData ItemOID="DS.VISIT" Value="WEEK 2"/>
         <ItemData ItemOID="DS.DSDTC" Value="2012-09-17"/>
         <ItemData ItemOID="DS.DSSTDTC" Value="2012-09-17"/>
         <ItemData ItemOID="DS.DSSTDY" Value="11"/>
      </ItemGroupData>
      <ItemGroupData data:ItemGroupDataSeq="20" ItemGroupOID="DS">
         <ItemData ItemOID="DS.STUDYID" Value="CDISCPILOT01"/>
         <ItemData ItemOID="DS.DOMAIN" Value="DS"/>
         <ItemData ItemOID="DS.USUBJID" Value="01-701-1111"/>
         <ItemData ItemOID="DS.DSSEQ" Value="2"/>
         <ItemData ItemOID="DS.DSTERM" Value="FINAL LAB VISIT"/>
         <ItemData ItemOID="DS.DSDECOD" Value="FINAL LAB VISIT"/>
         <ItemData ItemOID="DS.DSCAT" Value="OTHER EVENT"/>
         <ItemData ItemOID="DS.VISITNUM" Value="4"/>
         <ItemData ItemOID="DS.VISIT" Value="WEEK 2"/>
         <ItemData ItemOID="DS.DSDTC" Value="2012-09-17T11:48"/>
         <ItemData ItemOID="DS.DSSTDTC" Value="2012-09-17"/>
         <ItemData ItemOID="DS.DSSTDY" Value="11"/>
      </ItemGroupData>
      <ItemGroupData data:ItemGroupDataSeq="21" ItemGroupOID="DS">
         <ItemData ItemOID="DS.STUDYID" Value="CDISCPILOT01"/>
         <ItemData ItemOID="DS.DOMAIN" Value="DS"/>
         <ItemData ItemOID="DS.USUBJID" Value="01-701-1111"/>
         <ItemData ItemOID="DS.DSSEQ" Value="3"/>
         <ItemData ItemOID="DS.DSTERM" Value="FINAL RETRIEVAL VISIT"/>
         <ItemData ItemOID="DS.DSDECOD" Value="FINAL RETRIEVAL VISIT"/>
         <ItemData ItemOID="DS.DSCAT" Value="OTHER EVENT"/>
         <ItemData ItemOID="DS.VISITNUM" Value="201"/>
         <ItemData ItemOID="DS.VISIT" Value="RETRIEVAL"/>
         <ItemData ItemOID="DS.DSDTC" Value="2013-02-22"/>
         <ItemData ItemOID="DS.DSSTDTC" Value="2013-02-22"/>
         <ItemData ItemOID="DS.DSSTDY" Value="169"/>
      </ItemGroupData>
      <ItemGroupData data:ItemGroupDataSeq="22" ItemGroupOID="DS">
         <ItemData ItemOID="DS.STUDYID" Value="CDISCPILOT01"/>
         <ItemData ItemOID="DS.DOMAIN" Value="DS"/>
         <ItemData ItemOID="DS.USUBJID" Value="01-701-1115"/>
         <ItemData ItemOID="DS.DSSEQ" Value="1"/>
         <ItemData ItemOID="DS.DSSPID" Value="18"/>
         <ItemData ItemOID="DS.DSTERM" Value="ADVERSE EVENT"/>
         <ItemData ItemOID="DS.DSDECOD" Value="ADVERSE EVENT"/>
         <ItemData ItemOID="DS.DSCAT" Value="DISPOSITION EVENT"/>
         <ItemData ItemOID="DS.VISITNUM" Value="8"/>
         <ItemData ItemOID="DS.VISIT" Value="WEEK 8"/>
         <ItemData ItemOID="DS.DSDTC" Value="2013-01-23"/>
         <ItemData ItemOID="DS.DSSTDTC" Value="2013-01-23"/>
         <ItemData ItemOID="DS.DSSTDY" Value="55"/>
      </ItemGroupData>
      <ItemGroupData data:ItemGroupDataSeq="23" ItemGroupOID="DS">
         <ItemData ItemOID="DS.STUDYID" Value="CDISCPILOT01"/>
         <ItemData ItemOID="DS.DOMAIN" Value="DS"/>
         <ItemData ItemOID="DS.USUBJID" Value="01-701-1115"/>
         <ItemData ItemOID="DS.DSSEQ" Value="2"/>
         <ItemData ItemOID="DS.DSTERM" Value="FINAL LAB VISIT"/>
         <ItemData ItemOID="DS.DSDECOD" Value="FINAL LAB VISIT"/>
         <ItemData ItemOID="DS.DSCAT" Value="OTHER EVENT"/>
         <ItemData ItemOID="DS.VISITNUM" Value="8"/>
         <ItemData ItemOID="DS.VISIT" Value="WEEK 8"/>
         <ItemData ItemOID="DS.DSDTC" Value="2013-01-23T12:13"/>
         <ItemData ItemOID="DS.DSSTDTC" Value="2013-01-23"/>
         <ItemData ItemOID="DS.DSSTDY" Value="55"/>
      </ItemGroupData>
      <ItemGroupData data:ItemGroupDataSeq="24" ItemGroupOID="DS">
         <ItemData ItemOID="DS.STUDYID" Value="CDISCPILOT01"/>
         <ItemData ItemOID="DS.DOMAIN" Value="DS"/>
         <ItemData ItemOID="DS.USUBJID" Value="01-701-1115"/>
         <ItemData ItemOID="DS.DSSEQ" Value="3"/>
         <ItemData ItemOID="DS.DSTERM" Value="FINAL RETRIEVAL VISIT"/>
         <ItemData ItemOID="DS.DSDECOD" Value="FINAL RETRIEVAL VISIT"/>
         <ItemData ItemOID="DS.DSCAT" Value="OTHER EVENT"/>
         <ItemData ItemOID="DS.VISITNUM" Value="201"/>
         <ItemData ItemOID="DS.VISIT" Value="RETRIEVAL"/>
         <ItemData ItemOID="DS.DSDTC" Value="2013-05-20"/>
         <ItemData ItemOID="DS.DSSTDTC" Value="2013-05-20"/>
         <ItemData ItemOID="DS.DSSTDY" Value="172"/>
      </ItemGroupData>
      <ItemGroupData data:ItemGroupDataSeq="25" ItemGroupOID="DS">
         <ItemData ItemOID="DS.STUDYID" Value="CDISCPILOT01"/>
         <ItemData ItemOID="DS.DOMAIN" Value="DS"/>
         <ItemData ItemOID="DS.USUBJID" Value="01-701-1118"/>
         <ItemData ItemOID="DS.DSSEQ" Value="1"/>
         <ItemData ItemOID="DS.DSTERM" Value="PROTOCOL COMPLETED"/>
         <ItemData ItemOID="DS.DSDECOD" Value="COMPLETED"/>
         <ItemData ItemOID="DS.DSCAT" Value="DISPOSITION EVENT"/>
         <ItemData ItemOID="DS.VISITNUM" Value="13"/>
         <ItemData ItemOID="DS.VISIT" Value="WEEK 26"/>
         <ItemData ItemOID="DS.DSDTC" Value="2014-09-09"/>
         <ItemData ItemOID="DS.DSSTDTC" Value="2014-09-09"/>
         <ItemData ItemOID="DS.DSSTDY" Value="182"/>
      </ItemGroupData>
      <ItemGroupData data:ItemGroupDataSeq="26" ItemGroupOID="DS">
         <ItemData ItemOID="DS.STUDYID" Value="CDISCPILOT01"/>
         <ItemData ItemOID="DS.DOMAIN" Value="DS"/>
         <ItemData ItemOID="DS.USUBJID" Value="01-701-1118"/>
         <ItemData ItemOID="DS.DSSEQ" Value="2"/>
         <ItemData ItemOID="DS.DSTERM" Value="FINAL LAB VISIT"/>
         <ItemData ItemOID="DS.DSDECOD" Value="FINAL LAB VISIT"/>
         <ItemData ItemOID="DS.DSCAT" Value="OTHER EVENT"/>
         <ItemData ItemOID="DS.VISITNUM" Value="13"/>
         <ItemData ItemOID="DS.VISIT" Value="WEEK 26"/>
         <ItemData ItemOID="DS.DSDTC" Value="2014-09-09T13:28"/>
         <ItemData ItemOID="DS.DSSTDTC" Value="2014-09-09"/>
         <ItemData ItemOID="DS.DSSTDY" Value="182"/>
      </ItemGroupData>
      <ItemGroupData data:ItemGroupDataSeq="27" ItemGroupOID="DS">
         <ItemData ItemOID="DS.STUDYID" Value="CDISCPILOT01"/>
         <ItemData ItemOID="DS.DOMAIN" Value="DS"/>
         <ItemData ItemOID="DS.USUBJID" Value="01-701-1130"/>
         <ItemData ItemOID="DS.DSSEQ" Value="1"/>
         <ItemData ItemOID="DS.DSTERM" Value="PROTOCOL COMPLETED"/>
         <ItemData ItemOID="DS.DSDECOD" Value="COMPLETED"/>
         <ItemData ItemOID="DS.DSCAT" Value="DISPOSITION EVENT"/>
         <ItemData ItemOID="DS.VISITNUM" Value="13"/>
         <ItemData ItemOID="DS.VISIT" Value="WEEK 26"/>
         <ItemData ItemOID="DS.DSDTC" Value="2014-08-16"/>
         <ItemData ItemOID="DS.DSSTDTC" Value="2014-08-16"/>
         <ItemData ItemOID="DS.DSSTDY" Value="183"/>
      </ItemGroupData>
      <ItemGroupData data:ItemGroupDataSeq="28" ItemGroupOID="DS">
         <ItemData ItemOID="DS.STUDYID" Value="CDISCPILOT01"/>
         <ItemData ItemOID="DS.DOMAIN" Value="DS"/>
         <ItemData ItemOID="DS.USUBJID" Value="01-701-1130"/>
         <ItemData ItemOID="DS.DSSEQ" Value="2"/>
         <ItemData ItemOID="DS.DSTERM" Value="FINAL LAB VISIT"/>
         <ItemData ItemOID="DS.DSDECOD" Value="FINAL LAB VISIT"/>
         <ItemData ItemOID="DS.DSCAT" Value="OTHER EVENT"/>
         <ItemData ItemOID="DS.VISITNUM" Value="13"/>
         <ItemData ItemOID="DS.VISIT" Value="WEEK 26"/>
         <ItemData ItemOID="DS.DSDTC" Value="2014-08-16T13:10"/>
         <ItemData ItemOID="DS.DSSTDTC" Value="2014-08-16"/>
         <ItemData ItemOID="DS.DSSTDY" Value="183"/>
      </ItemGroupData>
      <ItemGroupData data:ItemGroupDataSeq="29" ItemGroupOID="DS">
         <ItemData ItemOID="DS.STUDYID" Value="CDISCPILOT01"/>
         <ItemData ItemOID="DS.DOMAIN" Value="DS"/>
         <ItemData ItemOID="DS.USUBJID" Value="01-701-1133"/>
         <ItemData ItemOID="DS.DSSEQ" Value="1"/>
         <ItemData ItemOID="DS.DSTERM" Value="PROTOCOL COMPLETED"/>
         <ItemData ItemOID="DS.DSDECOD" Value="COMPLETED"/>
         <ItemData ItemOID="DS.DSCAT" Value="DISPOSITION EVENT"/>
         <ItemData ItemOID="DS.VISITNUM" Value="13"/>
         <ItemData ItemOID="DS.VISIT" Value="WEEK 26"/>
         <ItemData ItemOID="DS.DSDTC" Value="2013-04-29"/>
         <ItemData ItemOID="DS.DSSTDTC" Value="2013-04-29"/>
         <ItemData ItemOID="DS.DSSTDY" Value="184"/>
      </ItemGroupData>
      <ItemGroupData data:ItemGroupDataSeq="30" ItemGroupOID="DS">
         <ItemData ItemOID="DS.STUDYID" Value="CDISCPILOT01"/>
         <ItemData ItemOID="DS.DOMAIN" Value="DS"/>
         <ItemData ItemOID="DS.USUBJID" Value="01-701-1133"/>
         <ItemData ItemOID="DS.DSSEQ" Value="2"/>
         <ItemData ItemOID="DS.DSTERM" Value="FINAL LAB VISIT"/>
         <ItemData ItemOID="DS.DSDECOD" Value="FINAL LAB VISIT"/>
         <ItemData ItemOID="DS.DSCAT" Value="OTHER EVENT"/>
         <ItemData ItemOID="DS.VISITNUM" Value="13"/>
         <ItemData ItemOID="DS.VISIT" Value="WEEK 26"/>
         <ItemData ItemOID="DS.DSDTC" Value="2013-04-29T10:13"/>
         <ItemData ItemOID="DS.DSSTDTC" Value="2013-04-29"/>
         <ItemData ItemOID="DS.DSSTDY" Value="184"/>
      </ItemGroupData>
      <ItemGroupData data:ItemGroupDataSeq="31" ItemGroupOID="DS">
         <ItemData ItemOID="DS.STUDYID" Value="CDISCPILOT01"/>
         <ItemData ItemOID="DS.DOMAIN" Value="DS"/>
         <ItemData ItemOID="DS.USUBJID" Value="01-701-1145"/>
         <ItemData ItemOID="DS.DSSEQ" Value="1"/>
         <ItemData ItemOID="DS.DSTERM" Value="SCREEN FAILURE"/>
         <ItemData ItemOID="DS.DSDECOD" Value="SCREEN FAILURE"/>
         <ItemData ItemOID="DS.DSCAT" Value="DISPOSITION EVENT"/>
         <ItemData ItemOID="DS.VISITNUM" Value="1"/>
         <ItemData ItemOID="DS.VISIT" Value="SCREENING 1"/>
         <ItemData ItemOID="DS.DSDTC" Value="2013-09-05"/>
         <ItemData ItemOID="DS.DSSTDTC" Value="2013-09-05"/>
      </ItemGroupData>
      <ItemGroupData data:ItemGroupDataSeq="32" ItemGroupOID="DS">
         <ItemData ItemOID="DS.STUDYID" Value="CDISCPILOT01"/>
         <ItemData ItemOID="DS.DOMAIN" Value="DS"/>
         <ItemData ItemOID="DS.USUBJID" Value="01-701-1146"/>
         <ItemData ItemOID="DS.DSSEQ" Value="1"/>
         <ItemData ItemOID="DS.DSSPID" Value="20"/>
         <ItemData ItemOID="DS.DSTERM" Value="ADVERSE EVENT"/>
         <ItemData ItemOID="DS.DSDECOD" Value="ADVERSE EVENT"/>
         <ItemData ItemOID="DS.DSCAT" Value="DISPOSITION EVENT"/>
         <ItemData ItemOID="DS.VISITNUM" Value="7"/>
         <ItemData ItemOID="DS.VISIT" Value="WEEK 6"/>
         <ItemData ItemOID="DS.DSDTC" Value="2013-06-30"/>
         <ItemData ItemOID="DS.DSSTDTC" Value="2013-06-30"/>
         <ItemData ItemOID="DS.DSSTDY" Value="42"/>
      </ItemGroupData>
      <ItemGroupData data:ItemGroupDataSeq="33" ItemGroupOID="DS">
         <ItemData ItemOID="DS.STUDYID" Value="CDISCPILOT01"/>
         <ItemData ItemOID="DS.DOMAIN" Value="DS"/>
         <ItemData ItemOID="DS.USUBJID" Value="01-701-1146"/>
         <ItemData ItemOID="DS.DSSEQ" Value="2"/>
         <ItemData ItemOID="DS.DSTERM" Value="FINAL LAB VISIT"/>
         <ItemData ItemOID="DS.DSDECOD" Value="FINAL LAB VISIT"/>
         <ItemData ItemOID="DS.DSCAT" Value="OTHER EVENT"/>
         <ItemData ItemOID="DS.VISITNUM" Value="7"/>
         <ItemData ItemOID="DS.VISIT" Value="WEEK 6"/>
         <ItemData ItemOID="DS.DSDTC" Value="2013-06-30T11:44"/>
         <ItemData ItemOID="DS.DSSTDTC" Value="2013-06-30"/>
         <ItemData ItemOID="DS.DSSTDY" Value="42"/>
      </ItemGroupData>
      <ItemGroupData data:ItemGroupDataSeq="34" ItemGroupOID="DS">
         <ItemData ItemOID="DS.STUDYID" Value="CDISCPILOT01"/>
         <ItemData ItemOID="DS.DOMAIN" Value="DS"/>
         <ItemData ItemOID="DS.USUBJID" Value="01-701-1148"/>
         <ItemData ItemOID="DS.DSSEQ" Value="1"/>
         <ItemData ItemOID="DS.DSTERM" Value="PROTOCOL COMPLETED"/>
         <ItemData ItemOID="DS.DSDECOD" Value="COMPLETED"/>
         <ItemData ItemOID="DS.DSCAT" Value="DISPOSITION EVENT"/>
         <ItemData ItemOID="DS.VISITNUM" Value="13"/>
         <ItemData ItemOID="DS.VISIT" Value="WEEK 26"/>
         <ItemData ItemOID="DS.DSDTC" Value="2014-02-20"/>
         <ItemData ItemOID="DS.DSSTDTC" Value="2014-02-20"/>
         <ItemData ItemOID="DS.DSSTDY" Value="182"/>
      </ItemGroupData>
      <ItemGroupData data:ItemGroupDataSeq="35" ItemGroupOID="DS">
         <ItemData ItemOID="DS.STUDYID" Value="CDISCPILOT01"/>
         <ItemData ItemOID="DS.DOMAIN" Value="DS"/>
         <ItemData ItemOID="DS.USUBJID" Value="01-701-1148"/>
         <ItemData ItemOID="DS.DSSEQ" Value="2"/>
         <ItemData ItemOID="DS.DSTERM" Value="FINAL LAB VISIT"/>
         <ItemData ItemOID="DS.DSDECOD" Value="FINAL LAB VISIT"/>
         <ItemData ItemOID="DS.DSCAT" Value="OTHER EVENT"/>
         <ItemData ItemOID="DS.VISITNUM" Value="13"/>
         <ItemData ItemOID="DS.VISIT" Value="WEEK 26"/>
         <ItemData ItemOID="DS.DSDTC" Value="2014-02-20T15:07"/>
         <ItemData ItemOID="DS.DSSTDTC" Value="2014-02-20"/>
         <ItemData ItemOID="DS.DSSTDY" Value="182"/>
      </ItemGroupData>
      <ItemGroupData data:ItemGroupDataSeq="36" ItemGroupOID="DS">
         <ItemData ItemOID="DS.STUDYID" Value="CDISCPILOT01"/>
         <ItemData ItemOID="DS.DOMAIN" Value="DS"/>
         <ItemData ItemOID="DS.USUBJID" Value="01-701-1153"/>
         <ItemData ItemOID="DS.DSSEQ" Value="1"/>
         <ItemData ItemOID="DS.DSTERM" Value="PROTOCOL COMPLETED"/>
         <ItemData ItemOID="DS.DSDECOD" Value="COMPLETED"/>
         <ItemData ItemOID="DS.DSCAT" Value="DISPOSITION EVENT"/>
         <ItemData ItemOID="DS.VISITNUM" Value="13"/>
         <ItemData ItemOID="DS.VISIT" Value="WEEK 26"/>
         <ItemData ItemOID="DS.DSDTC" Value="2014-04-01"/>
         <ItemData ItemOID="DS.DSSTDTC" Value="2014-04-01"/>
         <ItemData ItemOID="DS.DSSTDY" Value="191"/>
      </ItemGroupData>
      <ItemGroupData data:ItemGroupDataSeq="37" ItemGroupOID="DS">
         <ItemData ItemOID="DS.STUDYID" Value="CDISCPILOT01"/>
         <ItemData ItemOID="DS.DOMAIN" Value="DS"/>
         <ItemData ItemOID="DS.USUBJID" Value="01-701-1153"/>
         <ItemData ItemOID="DS.DSSEQ" Value="2"/>
         <ItemData ItemOID="DS.DSTERM" Value="FINAL LAB VISIT"/>
         <ItemData ItemOID="DS.DSDECOD" Value="FINAL LAB VISIT"/>
         <ItemData ItemOID="DS.DSCAT" Value="OTHER EVENT"/>
         <ItemData ItemOID="DS.VISITNUM" Value="13"/>
         <ItemData ItemOID="DS.VISIT" Value="WEEK 26"/>
         <ItemData ItemOID="DS.DSDTC" Value="2014-04-01T14:25"/>
         <ItemData ItemOID="DS.DSSTDTC" Value="2014-04-01"/>
         <ItemData ItemOID="DS.DSSTDY" Value="191"/>
      </ItemGroupData>
      <ItemGroupData data:ItemGroupDataSeq="38" ItemGroupOID="DS">
         <ItemData ItemOID="DS.STUDYID" Value="CDISCPILOT01"/>
         <ItemData ItemOID="DS.DOMAIN" Value="DS"/>
         <ItemData ItemOID="DS.USUBJID" Value="01-701-1162"/>
         <ItemData ItemOID="DS.DSSEQ" Value="1"/>
         <ItemData ItemOID="DS.DSTERM" Value="SCREEN FAILURE"/>
         <ItemData ItemOID="DS.DSDECOD" Value="SCREEN FAILURE"/>
         <ItemData ItemOID="DS.DSCAT" Value="DISPOSITION EVENT"/>
         <ItemData ItemOID="DS.VISITNUM" Value="1"/>
         <ItemData ItemOID="DS.VISIT" Value="SCREENING 1"/>
         <ItemData ItemOID="DS.DSDTC" Value="2013-04-18"/>
         <ItemData ItemOID="DS.DSSTDTC" Value="2013-04-18"/>
      </ItemGroupData>
      <ItemGroupData data:ItemGroupDataSeq="39" ItemGroupOID="DS">
         <ItemData ItemOID="DS.STUDYID" Value="CDISCPILOT01"/>
         <ItemData ItemOID="DS.DOMAIN" Value="DS"/>
         <ItemData ItemOID="DS.USUBJID" Value="01-701-1176"/>
         <ItemData ItemOID="DS.DSSEQ" Value="1"/>
         <ItemData ItemOID="DS.DSTERM" Value="SCREEN FAILURE"/>
         <ItemData ItemOID="DS.DSDECOD" Value="SCREEN FAILURE"/>
         <ItemData ItemOID="DS.DSCAT" Value="DISPOSITION EVENT"/>
         <ItemData ItemOID="DS.VISITNUM" Value="1"/>
         <ItemData ItemOID="DS.VISIT" Value="SCREENING 1"/>
         <ItemData ItemOID="DS.DSDTC" Value="2012-09-30"/>
         <ItemData ItemOID="DS.DSSTDTC" Value="2012-09-30"/>
      </ItemGroupData>
      <ItemGroupData data:ItemGroupDataSeq="40" ItemGroupOID="DS">
         <ItemData ItemOID="DS.STUDYID" Value="CDISCPILOT01"/>
         <ItemData ItemOID="DS.DOMAIN" Value="DS"/>
         <ItemData ItemOID="DS.USUBJID" Value="01-701-1180"/>
         <ItemData ItemOID="DS.DSSEQ" Value="1"/>
         <ItemData ItemOID="DS.DSSPID" Value="7"/>
         <ItemData ItemOID="DS.DSTERM" Value="ADVERSE EVENT"/>
         <ItemData ItemOID="DS.DSDECOD" Value="ADVERSE EVENT"/>
         <ItemData ItemOID="DS.DSCAT" Value="DISPOSITION EVENT"/>
         <ItemData ItemOID="DS.VISITNUM" Value="7"/>
         <ItemData ItemOID="DS.VISIT" Value="WEEK 6"/>
         <ItemData ItemOID="DS.DSDTC" Value="2013-03-23"/>
         <ItemData ItemOID="DS.DSSTDTC" Value="2013-03-23"/>
         <ItemData ItemOID="DS.DSSTDY" Value="40"/>
      </ItemGroupData>
      <ItemGroupData data:ItemGroupDataSeq="41" ItemGroupOID="DS">
         <ItemData ItemOID="DS.STUDYID" Value="CDISCPILOT01"/>
         <ItemData ItemOID="DS.DOMAIN" Value="DS"/>
         <ItemData ItemOID="DS.USUBJID" Value="01-701-1180"/>
         <ItemData ItemOID="DS.DSSEQ" Value="2"/>
         <ItemData ItemOID="DS.DSTERM" Value="FINAL LAB VISIT"/>
         <ItemData ItemOID="DS.DSDECOD" Value="FINAL LAB VISIT"/>
         <ItemData ItemOID="DS.DSCAT" Value="OTHER EVENT"/>
         <ItemData ItemOID="DS.VISITNUM" Value="7"/>
         <ItemData ItemOID="DS.VISIT" Value="WEEK 6"/>
         <ItemData ItemOID="DS.DSDTC" Value="2013-03-23T12:45"/>
         <ItemData ItemOID="DS.DSSTDTC" Value="2013-03-23"/>
         <ItemData ItemOID="DS.DSSTDY" Value="40"/>
      </ItemGroupData>
      <ItemGroupData data:ItemGroupDataSeq="42" ItemGroupOID="DS">
         <ItemData ItemOID="DS.STUDYID" Value="CDISCPILOT01"/>
         <ItemData ItemOID="DS.DOMAIN" Value="DS"/>
         <ItemData ItemOID="DS.USUBJID" Value="01-701-1181"/>
         <ItemData ItemOID="DS.DSSEQ" Value="1"/>
         <ItemData ItemOID="DS.DSSPID" Value="24"/>
         <ItemData ItemOID="DS.DSTERM" Value="ADVERSE EVENT"/>
         <ItemData ItemOID="DS.DSDECOD" Value="ADVERSE EVENT"/>
         <ItemData ItemOID="DS.DSCAT" Value="DISPOSITION EVENT"/>
         <ItemData ItemOID="DS.VISITNUM" Value="4"/>
         <ItemData ItemOID="DS.VISIT" Value="WEEK 2"/>
         <ItemData ItemOID="DS.DSDTC" Value="2013-12-12"/>
         <ItemData ItemOID="DS.DSSTDTC" Value="2013-12-12"/>
         <ItemData ItemOID="DS.DSSTDY" Value="8"/>
      </ItemGroupData>
      <ItemGroupData data:ItemGroupDataSeq="43" ItemGroupOID="DS">
         <ItemData ItemOID="DS.STUDYID" Value="CDISCPILOT01"/>
         <ItemData ItemOID="DS.DOMAIN" Value="DS"/>
         <ItemData ItemOID="DS.USUBJID" Value="01-701-1181"/>
         <ItemData ItemOID="DS.DSSEQ" Value="2"/>
         <ItemData ItemOID="DS.DSTERM" Value="FINAL LAB VISIT"/>
         <ItemData ItemOID="DS.DSDECOD" Value="FINAL LAB VISIT"/>
         <ItemData ItemOID="DS.DSCAT" Value="OTHER EVENT"/>
         <ItemData ItemOID="DS.VISITNUM" Value="4"/>
         <ItemData ItemOID="DS.VISIT" Value="WEEK 2"/>
         <ItemData ItemOID="DS.DSDTC" Value="2013-12-12T12:09"/>
         <ItemData ItemOID="DS.DSSTDTC" Value="2013-12-12"/>
         <ItemData ItemOID="DS.DSSTDY" Value="8"/>
      </ItemGroupData>
      <ItemGroupData data:ItemGroupDataSeq="44" ItemGroupOID="DS">
         <ItemData ItemOID="DS.STUDYID" Value="CDISCPILOT01"/>
         <ItemData ItemOID="DS.DOMAIN" Value="DS"/>
         <ItemData ItemOID="DS.USUBJID" Value="01-701-1181"/>
         <ItemData ItemOID="DS.DSSEQ" Value="3"/>
         <ItemData ItemOID="DS.DSTERM" Value="FINAL RETRIEVAL VISIT"/>
         <ItemData ItemOID="DS.DSDECOD" Value="FINAL RETRIEVAL VISIT"/>
         <ItemData ItemOID="DS.DSCAT" Value="OTHER EVENT"/>
         <ItemData ItemOID="DS.VISITNUM" Value="201"/>
         <ItemData ItemOID="DS.VISIT" Value="RETRIEVAL"/>
         <ItemData ItemOID="DS.DSDTC" Value="2014-05-23"/>
         <ItemData ItemOID="DS.DSSTDTC" Value="2014-05-23"/>
         <ItemData ItemOID="DS.DSSTDY" Value="170"/>
      </ItemGroupData>
      <ItemGroupData data:ItemGroupDataSeq="45" ItemGroupOID="DS">
         <ItemData ItemOID="DS.STUDYID" Value="CDISCPILOT01"/>
         <ItemData ItemOID="DS.DOMAIN" Value="DS"/>
         <ItemData ItemOID="DS.USUBJID" Value="01-701-1188"/>
         <ItemData ItemOID="DS.DSSEQ" Value="1"/>
         <ItemData ItemOID="DS.DSSPID" Value="14"/>
         <ItemData ItemOID="DS.DSTERM" Value="ADVERSE EVENT"/>
         <ItemData ItemOID="DS.DSDECOD" Value="ADVERSE EVENT"/>
         <ItemData ItemOID="DS.DSCAT" Value="DISPOSITION EVENT"/>
         <ItemData ItemOID="DS.VISITNUM" Value="7"/>
         <ItemData ItemOID="DS.VISIT" Value="WEEK 6"/>
         <ItemData ItemOID="DS.DSDTC" Value="2013-03-25"/>
         <ItemData ItemOID="DS.DSSTDTC" Value="2013-03-25"/>
         <ItemData ItemOID="DS.DSSTDY" Value="39"/>
      </ItemGroupData>
      <ItemGroupData data:ItemGroupDataSeq="46" ItemGroupOID="DS">
         <ItemData ItemOID="DS.STUDYID" Value="CDISCPILOT01"/>
         <ItemData ItemOID="DS.DOMAIN" Value="DS"/>
         <ItemData ItemOID="DS.USUBJID" Value="01-701-1188"/>
         <ItemData ItemOID="DS.DSSEQ" Value="2"/>
         <ItemData ItemOID="DS.DSTERM" Value="FINAL LAB VISIT"/>
         <ItemData ItemOID="DS.DSDECOD" Value="FINAL LAB VISIT"/>
         <ItemData ItemOID="DS.DSCAT" Value="OTHER EVENT"/>
         <ItemData ItemOID="DS.VISITNUM" Value="7"/>
         <ItemData ItemOID="DS.VISIT" Value="WEEK 6"/>
         <ItemData ItemOID="DS.DSDTC" Value="2013-03-25T15:08"/>
         <ItemData ItemOID="DS.DSSTDTC" Value="2013-03-25"/>
         <ItemData ItemOID="DS.DSSTDY" Value="39"/>
      </ItemGroupData>
      <ItemGroupData data:ItemGroupDataSeq="47" ItemGroupOID="DS">
         <ItemData ItemOID="DS.STUDYID" Value="CDISCPILOT01"/>
         <ItemData ItemOID="DS.DOMAIN" Value="DS"/>
         <ItemData ItemOID="DS.USUBJID" Value="01-701-1188"/>
         <ItemData ItemOID="DS.DSSEQ" Value="3"/>
         <ItemData ItemOID="DS.DSTERM" Value="FINAL RETRIEVAL VISIT"/>
         <ItemData ItemOID="DS.DSDECOD" Value="FINAL RETRIEVAL VISIT"/>
         <ItemData ItemOID="DS.DSCAT" Value="OTHER EVENT"/>
         <ItemData ItemOID="DS.VISITNUM" Value="201"/>
         <ItemData ItemOID="DS.VISIT" Value="RETRIEVAL"/>
         <ItemData ItemOID="DS.DSDTC" Value="2013-08-04"/>
         <ItemData ItemOID="DS.DSSTDTC" Value="2013-08-04"/>
         <ItemData ItemOID="DS.DSSTDY" Value="171"/>
      </ItemGroupData>
      <ItemGroupData data:ItemGroupDataSeq="48" ItemGroupOID="DS">
         <ItemData ItemOID="DS.STUDYID" Value="CDISCPILOT01"/>
         <ItemData ItemOID="DS.DOMAIN" Value="DS"/>
         <ItemData ItemOID="DS.USUBJID" Value="01-701-1192"/>
         <ItemData ItemOID="DS.DSSEQ" Value="1"/>
         <ItemData ItemOID="DS.DSTERM" Value="PROTOCOL COMPLETED"/>
         <ItemData ItemOID="DS.DSDECOD" Value="COMPLETED"/>
         <ItemData ItemOID="DS.DSCAT" Value="DISPOSITION EVENT"/>
         <ItemData ItemOID="DS.VISITNUM" Value="13"/>
         <ItemData ItemOID="DS.VISIT" Value="WEEK 26"/>
         <ItemData ItemOID="DS.DSDTC" Value="2013-01-20"/>
         <ItemData ItemOID="DS.DSSTDTC" Value="2013-01-20"/>
         <ItemData ItemOID="DS.DSSTDY" Value="183"/>
      </ItemGroupData>
      <ItemGroupData data:ItemGroupDataSeq="49" ItemGroupOID="DS">
         <ItemData ItemOID="DS.STUDYID" Value="CDISCPILOT01"/>
         <ItemData ItemOID="DS.DOMAIN" Value="DS"/>
         <ItemData ItemOID="DS.USUBJID" Value="01-701-1192"/>
         <ItemData ItemOID="DS.DSSEQ" Value="2"/>
         <ItemData ItemOID="DS.DSTERM" Value="FINAL LAB VISIT"/>
         <ItemData ItemOID="DS.DSDECOD" Value="FINAL LAB VISIT"/>
         <ItemData ItemOID="DS.DSCAT" Value="OTHER EVENT"/>
         <ItemData ItemOID="DS.VISITNUM" Value="13"/>
         <ItemData ItemOID="DS.VISIT" Value="WEEK 26"/>
         <ItemData ItemOID="DS.DSDTC" Value="2013-01-20T15:47"/>
         <ItemData ItemOID="DS.DSSTDTC" Value="2013-01-20"/>
         <ItemData ItemOID="DS.DSSTDY" Value="183"/>
      </ItemGroupData>
      <ItemGroupData data:ItemGroupDataSeq="50" ItemGroupOID="DS">
         <ItemData ItemOID="DS.STUDYID" Value="CDISCPILOT01"/>
         <ItemData ItemOID="DS.DOMAIN" Value="DS"/>
         <ItemData ItemOID="DS.USUBJID" Value="01-701-1203"/>
         <ItemData ItemOID="DS.DSSEQ" Value="1"/>
         <ItemData ItemOID="DS.DSTERM" Value="PROTOCOL COMPLETED"/>
         <ItemData ItemOID="DS.DSDECOD" Value="COMPLETED"/>
         <ItemData ItemOID="DS.DSCAT" Value="DISPOSITION EVENT"/>
         <ItemData ItemOID="DS.VISITNUM" Value="13"/>
         <ItemData ItemOID="DS.VISIT" Value="WEEK 26"/>
         <ItemData ItemOID="DS.DSDTC" Value="2013-08-03"/>
         <ItemData ItemOID="DS.DSSTDTC" Value="2013-08-03"/>
         <ItemData ItemOID="DS.DSSTDY" Value="183"/>
      </ItemGroupData>
      <ItemGroupData data:ItemGroupDataSeq="51" ItemGroupOID="DS">
         <ItemData ItemOID="DS.STUDYID" Value="CDISCPILOT01"/>
         <ItemData ItemOID="DS.DOMAIN" Value="DS"/>
         <ItemData ItemOID="DS.USUBJID" Value="01-701-1203"/>
         <ItemData ItemOID="DS.DSSEQ" Value="2"/>
         <ItemData ItemOID="DS.DSTERM" Value="FINAL LAB VISIT"/>
         <ItemData ItemOID="DS.DSDECOD" Value="FINAL LAB VISIT"/>
         <ItemData ItemOID="DS.DSCAT" Value="OTHER EVENT"/>
         <ItemData ItemOID="DS.VISITNUM" Value="13"/>
         <ItemData ItemOID="DS.VISIT" Value="WEEK 26"/>
         <ItemData ItemOID="DS.DSDTC" Value="2013-08-03T10:10"/>
         <ItemData ItemOID="DS.DSSTDTC" Value="2013-08-03"/>
         <ItemData ItemOID="DS.DSSTDY" Value="183"/>
      </ItemGroupData>
      <ItemGroupData data:ItemGroupDataSeq="52" ItemGroupOID="DS">
         <ItemData ItemOID="DS.STUDYID" Value="CDISCPILOT01"/>
         <ItemData ItemOID="DS.DOMAIN" Value="DS"/>
         <ItemData ItemOID="DS.USUBJID" Value="01-701-1211"/>
         <ItemData ItemOID="DS.DSSEQ" Value="1"/>
         <ItemData ItemOID="DS.DSSPID" Value="18"/>
         <ItemData ItemOID="DS.DSTERM" Value="DEATH"/>
         <ItemData ItemOID="DS.DSDECOD" Value="DEATH"/>
         <ItemData ItemOID="DS.DSCAT" Value="DISPOSITION EVENT"/>
         <ItemData ItemOID="DS.VISITNUM" Value="9"/>
         <ItemData ItemOID="DS.VISIT" Value="WEEK 12"/>
         <ItemData ItemOID="DS.DSDTC" Value="2013-01-14"/>
         <ItemData ItemOID="DS.DSSTDTC" Value="2013-01-14"/>
         <ItemData ItemOID="DS.DSSTDY" Value="61"/>
      </ItemGroupData>
      <ItemGroupData data:ItemGroupDataSeq="53" ItemGroupOID="DS">
         <ItemData ItemOID="DS.STUDYID" Value="CDISCPILOT01"/>
         <ItemData ItemOID="DS.DOMAIN" Value="DS"/>
         <ItemData ItemOID="DS.USUBJID" Value="01-701-1211"/>
         <ItemData ItemOID="DS.DSSEQ" Value="2"/>
         <ItemData ItemOID="DS.DSTERM" Value="FINAL LAB VISIT"/>
         <ItemData ItemOID="DS.DSDECOD" Value="FINAL LAB VISIT"/>
         <ItemData ItemOID="DS.DSCAT" Value="OTHER EVENT"/>
         <ItemData ItemOID="DS.VISITNUM" Value="8"/>
         <ItemData ItemOID="DS.VISIT" Value="WEEK 8"/>
         <ItemData ItemOID="DS.DSDTC" Value="2013-01-08T12:13"/>
         <ItemData ItemOID="DS.DSSTDTC" Value="2013-01-08"/>
         <ItemData ItemOID="DS.DSSTDY" Value="55"/>
      </ItemGroupData>
      <ItemGroupData data:ItemGroupDataSeq="54" ItemGroupOID="DS">
         <ItemData ItemOID="DS.STUDYID" Value="CDISCPILOT01"/>
         <ItemData ItemOID="DS.DOMAIN" Value="DS"/>
         <ItemData ItemOID="DS.USUBJID" Value="01-701-1234"/>
         <ItemData ItemOID="DS.DSSEQ" Value="1"/>
         <ItemData ItemOID="DS.DSTERM" Value="PROTOCOL COMPLETED"/>
         <ItemData ItemOID="DS.DSDECOD" Value="COMPLETED"/>
         <ItemData ItemOID="DS.DSCAT" Value="DISPOSITION EVENT"/>
         <ItemData ItemOID="DS.VISITNUM" Value="13"/>
         <ItemData ItemOID="DS.VISIT" Value="WEEK 26"/>
         <ItemData ItemOID="DS.DSDTC" Value="2013-09-22"/>
         <ItemData ItemOID="DS.DSSTDTC" Value="2013-09-22"/>
         <ItemData ItemOID="DS.DSSTDY" Value="177"/>
      </ItemGroupData>
      <ItemGroupData data:ItemGroupDataSeq="55" ItemGroupOID="DS">
         <ItemData ItemOID="DS.STUDYID" Value="CDISCPILOT01"/>
         <ItemData ItemOID="DS.DOMAIN" Value="DS"/>
         <ItemData ItemOID="DS.USUBJID" Value="01-701-1234"/>
         <ItemData ItemOID="DS.DSSEQ" Value="2"/>
         <ItemData ItemOID="DS.DSTERM" Value="FINAL LAB VISIT"/>
         <ItemData ItemOID="DS.DSDECOD" Value="FINAL LAB VISIT"/>
         <ItemData ItemOID="DS.DSCAT" Value="OTHER EVENT"/>
         <ItemData ItemOID="DS.VISITNUM" Value="13"/>
         <ItemData ItemOID="DS.VISIT" Value="WEEK 26"/>
         <ItemData ItemOID="DS.DSDTC" Value="2013-09-22T09:25"/>
         <ItemData ItemOID="DS.DSSTDTC" Value="2013-09-22"/>
         <ItemData ItemOID="DS.DSSTDY" Value="177"/>
      </ItemGroupData>
      <ItemGroupData data:ItemGroupDataSeq="56" ItemGroupOID="DS">
         <ItemData ItemOID="DS.STUDYID" Value="CDISCPILOT01"/>
         <ItemData ItemOID="DS.DOMAIN" Value="DS"/>
         <ItemData ItemOID="DS.USUBJID" Value="01-701-1239"/>
         <ItemData ItemOID="DS.DSSEQ" Value="1"/>
         <ItemData ItemOID="DS.DSTERM" Value="PROTOCOL COMPLETED"/>
         <ItemData ItemOID="DS.DSDECOD" Value="COMPLETED"/>
         <ItemData ItemOID="DS.DSCAT" Value="DISPOSITION EVENT"/>
         <ItemData ItemOID="DS.VISITNUM" Value="13"/>
         <ItemData ItemOID="DS.VISIT" Value="WEEK 26"/>
         <ItemData ItemOID="DS.DSDTC" Value="2014-07-11"/>
         <ItemData ItemOID="DS.DSSTDTC" Value="2014-07-11"/>
         <ItemData ItemOID="DS.DSSTDY" Value="182"/>
      </ItemGroupData>
      <ItemGroupData data:ItemGroupDataSeq="57" ItemGroupOID="DS">
         <ItemData ItemOID="DS.STUDYID" Value="CDISCPILOT01"/>
         <ItemData ItemOID="DS.DOMAIN" Value="DS"/>
         <ItemData ItemOID="DS.USUBJID" Value="01-701-1239"/>
         <ItemData ItemOID="DS.DSSEQ" Value="2"/>
         <ItemData ItemOID="DS.DSTERM" Value="FINAL LAB VISIT"/>
         <ItemData ItemOID="DS.DSDECOD" Value="FINAL LAB VISIT"/>
         <ItemData ItemOID="DS.DSCAT" Value="OTHER EVENT"/>
         <ItemData ItemOID="DS.VISITNUM" Value="13"/>
         <ItemData ItemOID="DS.VISIT" Value="WEEK 26"/>
         <ItemData ItemOID="DS.DSDTC" Value="2014-07-11T15:40"/>
         <ItemData ItemOID="DS.DSSTDTC" Value="2014-07-11"/>
         <ItemData ItemOID="DS.DSSTDY" Value="182"/>
      </ItemGroupData>
      <ItemGroupData data:ItemGroupDataSeq="58" ItemGroupOID="DS">
         <ItemData ItemOID="DS.STUDYID" Value="CDISCPILOT01"/>
         <ItemData ItemOID="DS.DOMAIN" Value="DS"/>
         <ItemData ItemOID="DS.USUBJID" Value="01-701-1240"/>
         <ItemData ItemOID="DS.DSSEQ" Value="1"/>
         <ItemData ItemOID="DS.DSTERM" Value="SCREEN FAILURE"/>
         <ItemData ItemOID="DS.DSDECOD" Value="SCREEN FAILURE"/>
         <ItemData ItemOID="DS.DSCAT" Value="DISPOSITION EVENT"/>
         <ItemData ItemOID="DS.VISITNUM" Value="1"/>
         <ItemData ItemOID="DS.VISIT" Value="SCREENING 1"/>
         <ItemData ItemOID="DS.DSDTC" Value="2013-09-22"/>
         <ItemData ItemOID="DS.DSSTDTC" Value="2013-09-22"/>
      </ItemGroupData>
      <ItemGroupData data:ItemGroupDataSeq="59" ItemGroupOID="DS">
         <ItemData ItemOID="DS.STUDYID" Value="CDISCPILOT01"/>
         <ItemData ItemOID="DS.DOMAIN" Value="DS"/>
         <ItemData ItemOID="DS.USUBJID" Value="01-701-1275"/>
         <ItemData ItemOID="DS.DSSEQ" Value="1"/>
         <ItemData ItemOID="DS.DSTERM" Value="WITHDRAW CONSENT"/>
         <ItemData ItemOID="DS.DSDECOD" Value="WITHDRAWAL BY SUBJECT"/>
         <ItemData ItemOID="DS.DSCAT" Value="DISPOSITION EVENT"/>
         <ItemData ItemOID="DS.VISITNUM" Value="10"/>
         <ItemData ItemOID="DS.VISIT" Value="WEEK 16"/>
         <ItemData ItemOID="DS.DSDTC" Value="2014-06-14"/>
         <ItemData ItemOID="DS.DSSTDTC" Value="2014-06-14"/>
         <ItemData ItemOID="DS.DSSTDY" Value="128"/>
      </ItemGroupData>
      <ItemGroupData data:ItemGroupDataSeq="60" ItemGroupOID="DS">
         <ItemData ItemOID="DS.STUDYID" Value="CDISCPILOT01"/>
         <ItemData ItemOID="DS.DOMAIN" Value="DS"/>
         <ItemData ItemOID="DS.USUBJID" Value="01-701-1275"/>
         <ItemData ItemOID="DS.DSSEQ" Value="2"/>
         <ItemData ItemOID="DS.DSTERM" Value="FINAL LAB VISIT"/>
         <ItemData ItemOID="DS.DSDECOD" Value="FINAL LAB VISIT"/>
         <ItemData ItemOID="DS.DSCAT" Value="OTHER EVENT"/>
         <ItemData ItemOID="DS.VISITNUM" Value="10"/>
         <ItemData ItemOID="DS.VISIT" Value="WEEK 16"/>
         <ItemData ItemOID="DS.DSDTC" Value="2014-06-14T12:35"/>
         <ItemData ItemOID="DS.DSSTDTC" Value="2014-06-14"/>
         <ItemData ItemOID="DS.DSSTDY" Value="128"/>
      </ItemGroupData>
      <ItemGroupData data:ItemGroupDataSeq="61" ItemGroupOID="DS">
         <ItemData ItemOID="DS.STUDYID" Value="CDISCPILOT01"/>
         <ItemData ItemOID="DS.DOMAIN" Value="DS"/>
         <ItemData ItemOID="DS.USUBJID" Value="01-701-1287"/>
         <ItemData ItemOID="DS.DSSEQ" Value="1"/>
         <ItemData ItemOID="DS.DSTERM" Value="PROTOCOL COMPLETED"/>
         <ItemData ItemOID="DS.DSDECOD" Value="COMPLETED"/>
         <ItemData ItemOID="DS.DSCAT" Value="DISPOSITION EVENT"/>
         <ItemData ItemOID="DS.VISITNUM" Value="13"/>
         <ItemData ItemOID="DS.VISIT" Value="WEEK 26"/>
         <ItemData ItemOID="DS.DSDTC" Value="2014-07-26"/>
         <ItemData ItemOID="DS.DSSTDTC" Value="2014-07-26"/>
         <ItemData ItemOID="DS.DSSTDY" Value="183"/>
      </ItemGroupData>
      <ItemGroupData data:ItemGroupDataSeq="62" ItemGroupOID="DS">
         <ItemData ItemOID="DS.STUDYID" Value="CDISCPILOT01"/>
         <ItemData ItemOID="DS.DOMAIN" Value="DS"/>
         <ItemData ItemOID="DS.USUBJID" Value="01-701-1287"/>
         <ItemData ItemOID="DS.DSSEQ" Value="2"/>
         <ItemData ItemOID="DS.DSTERM" Value="FINAL LAB VISIT"/>
         <ItemData ItemOID="DS.DSDECOD" Value="FINAL LAB VISIT"/>
         <ItemData ItemOID="DS.DSCAT" Value="OTHER EVENT"/>
         <ItemData ItemOID="DS.VISITNUM" Value="13"/>
         <ItemData ItemOID="DS.VISIT" Value="WEEK 26"/>
         <ItemData ItemOID="DS.DSDTC" Value="2014-07-26T13:15"/>
         <ItemData ItemOID="DS.DSSTDTC" Value="2014-07-26"/>
         <ItemData ItemOID="DS.DSSTDY" Value="183"/>
      </ItemGroupData>
      <ItemGroupData data:ItemGroupDataSeq="63" ItemGroupOID="DS">
         <ItemData ItemOID="DS.STUDYID" Value="CDISCPILOT01"/>
         <ItemData ItemOID="DS.DOMAIN" Value="DS"/>
         <ItemData ItemOID="DS.USUBJID" Value="01-701-1294"/>
         <ItemData ItemOID="DS.DSSEQ" Value="1"/>
         <ItemData ItemOID="DS.DSSPID" Value="14"/>
         <ItemData ItemOID="DS.DSTERM" Value="ADVERSE EVENT"/>
         <ItemData ItemOID="DS.DSDECOD" Value="ADVERSE EVENT"/>
         <ItemData ItemOID="DS.DSCAT" Value="DISPOSITION EVENT"/>
         <ItemData ItemOID="DS.VISITNUM" Value="9"/>
         <ItemData ItemOID="DS.VISIT" Value="WEEK 12"/>
         <ItemData ItemOID="DS.DSDTC" Value="2013-06-14"/>
         <ItemData ItemOID="DS.DSSTDTC" Value="2013-06-14"/>
         <ItemData ItemOID="DS.DSSTDY" Value="83"/>
      </ItemGroupData>
      <ItemGroupData data:ItemGroupDataSeq="64" ItemGroupOID="DS">
         <ItemData ItemOID="DS.STUDYID" Value="CDISCPILOT01"/>
         <ItemData ItemOID="DS.DOMAIN" Value="DS"/>
         <ItemData ItemOID="DS.USUBJID" Value="01-701-1294"/>
         <ItemData ItemOID="DS.DSSEQ" Value="2"/>
         <ItemData ItemOID="DS.DSTERM" Value="FINAL LAB VISIT"/>
         <ItemData ItemOID="DS.DSDECOD" Value="FINAL LAB VISIT"/>
         <ItemData ItemOID="DS.DSCAT" Value="OTHER EVENT"/>
         <ItemData ItemOID="DS.VISITNUM" Value="9"/>
         <ItemData ItemOID="DS.VISIT" Value="WEEK 12"/>
         <ItemData ItemOID="DS.DSDTC" Value="2013-06-14T09:47"/>
         <ItemData ItemOID="DS.DSSTDTC" Value="2013-06-14"/>
         <ItemData ItemOID="DS.DSSTDY" Value="83"/>
      </ItemGroupData>
      <ItemGroupData data:ItemGroupDataSeq="65" ItemGroupOID="DS">
         <ItemData ItemOID="DS.STUDYID" Value="CDISCPILOT01"/>
         <ItemData ItemOID="DS.DOMAIN" Value="DS"/>
         <ItemData ItemOID="DS.USUBJID" Value="01-701-1294"/>
         <ItemData ItemOID="DS.DSSEQ" Value="3"/>
         <ItemData ItemOID="DS.DSTERM" Value="FINAL RETRIEVAL VISIT"/>
         <ItemData ItemOID="DS.DSDECOD" Value="FINAL RETRIEVAL VISIT"/>
         <ItemData ItemOID="DS.DSCAT" Value="OTHER EVENT"/>
         <ItemData ItemOID="DS.VISITNUM" Value="201"/>
         <ItemData ItemOID="DS.VISIT" Value="RETRIEVAL"/>
         <ItemData ItemOID="DS.DSDTC" Value="2013-10-08"/>
         <ItemData ItemOID="DS.DSSTDTC" Value="2013-10-08"/>
         <ItemData ItemOID="DS.DSSTDY" Value="199"/>
      </ItemGroupData>
      <ItemGroupData data:ItemGroupDataSeq="66" ItemGroupOID="DS">
         <ItemData ItemOID="DS.STUDYID" Value="CDISCPILOT01"/>
         <ItemData ItemOID="DS.DOMAIN" Value="DS"/>
         <ItemData ItemOID="DS.USUBJID" Value="01-701-1302"/>
         <ItemData ItemOID="DS.DSSEQ" Value="1"/>
         <ItemData ItemOID="DS.DSSPID" Value="31"/>
         <ItemData ItemOID="DS.DSTERM" Value="ADVERSE EVENT"/>
         <ItemData ItemOID="DS.DSDECOD" Value="ADVERSE EVENT"/>
         <ItemData ItemOID="DS.DSCAT" Value="DISPOSITION EVENT"/>
         <ItemData ItemOID="DS.VISITNUM" Value="9"/>
         <ItemData ItemOID="DS.VISIT" Value="WEEK 12"/>
         <ItemData ItemOID="DS.DSDTC" Value="2013-11-05"/>
         <ItemData ItemOID="DS.DSSTDTC" Value="2013-11-05"/>
         <ItemData ItemOID="DS.DSSTDY" Value="69"/>
      </ItemGroupData>
      <ItemGroupData data:ItemGroupDataSeq="67" ItemGroupOID="DS">
         <ItemData ItemOID="DS.STUDYID" Value="CDISCPILOT01"/>
         <ItemData ItemOID="DS.DOMAIN" Value="DS"/>
         <ItemData ItemOID="DS.USUBJID" Value="01-701-1302"/>
         <ItemData ItemOID="DS.DSSEQ" Value="2"/>
         <ItemData ItemOID="DS.DSTERM" Value="FINAL LAB VISIT"/>
         <ItemData ItemOID="DS.DSDECOD" Value="FINAL LAB VISIT"/>
         <ItemData ItemOID="DS.DSCAT" Value="OTHER EVENT"/>
         <ItemData ItemOID="DS.VISITNUM" Value="9"/>
         <ItemData ItemOID="DS.VISIT" Value="WEEK 12"/>
         <ItemData ItemOID="DS.DSDTC" Value="2013-11-05T13:54"/>
         <ItemData ItemOID="DS.DSSTDTC" Value="2013-11-05"/>
         <ItemData ItemOID="DS.DSSTDY" Value="69"/>
      </ItemGroupData>
      <ItemGroupData data:ItemGroupDataSeq="68" ItemGroupOID="DS">
         <ItemData ItemOID="DS.STUDYID" Value="CDISCPILOT01"/>
         <ItemData ItemOID="DS.DOMAIN" Value="DS"/>
         <ItemData ItemOID="DS.USUBJID" Value="01-701-1302"/>
         <ItemData ItemOID="DS.DSSEQ" Value="3"/>
         <ItemData ItemOID="DS.DSTERM" Value="FINAL RETRIEVAL VISIT"/>
         <ItemData ItemOID="DS.DSDECOD" Value="FINAL RETRIEVAL VISIT"/>
         <ItemData ItemOID="DS.DSCAT" Value="OTHER EVENT"/>
         <ItemData ItemOID="DS.VISITNUM" Value="201"/>
         <ItemData ItemOID="DS.VISIT" Value="RETRIEVAL"/>
         <ItemData ItemOID="DS.DSDTC" Value="2014-02-13"/>
         <ItemData ItemOID="DS.DSSTDTC" Value="2014-02-13"/>
         <ItemData ItemOID="DS.DSSTDY" Value="169"/>
      </ItemGroupData>
      <ItemGroupData data:ItemGroupDataSeq="69" ItemGroupOID="DS">
         <ItemData ItemOID="DS.STUDYID" Value="CDISCPILOT01"/>
         <ItemData ItemOID="DS.DOMAIN" Value="DS"/>
         <ItemData ItemOID="DS.USUBJID" Value="01-701-1307"/>
         <ItemData ItemOID="DS.DSSEQ" Value="1"/>
         <ItemData ItemOID="DS.DSTERM" Value="SCREEN FAILURE"/>
         <ItemData ItemOID="DS.DSDECOD" Value="SCREEN FAILURE"/>
         <ItemData ItemOID="DS.DSCAT" Value="DISPOSITION EVENT"/>
         <ItemData ItemOID="DS.VISITNUM" Value="1"/>
         <ItemData ItemOID="DS.VISIT" Value="SCREENING 1"/>
         <ItemData ItemOID="DS.DSDTC" Value="2013-12-08"/>
         <ItemData ItemOID="DS.DSSTDTC" Value="2013-12-08"/>
      </ItemGroupData>
      <ItemGroupData data:ItemGroupDataSeq="70" ItemGroupOID="DS">
         <ItemData ItemOID="DS.STUDYID" Value="CDISCPILOT01"/>
         <ItemData ItemOID="DS.DOMAIN" Value="DS"/>
         <ItemData ItemOID="DS.USUBJID" Value="01-701-1317"/>
         <ItemData ItemOID="DS.DSSEQ" Value="1"/>
         <ItemData ItemOID="DS.DSTERM" Value="PROTOCOL COMPLETED"/>
         <ItemData ItemOID="DS.DSDECOD" Value="COMPLETED"/>
         <ItemData ItemOID="DS.DSCAT" Value="DISPOSITION EVENT"/>
         <ItemData ItemOID="DS.VISITNUM" Value="13"/>
         <ItemData ItemOID="DS.VISIT" Value="WEEK 26"/>
         <ItemData ItemOID="DS.DSDTC" Value="2014-11-20"/>
         <ItemData ItemOID="DS.DSSTDTC" Value="2014-11-20"/>
         <ItemData ItemOID="DS.DSSTDY" Value="183"/>
      </ItemGroupData>
      <ItemGroupData data:ItemGroupDataSeq="71" ItemGroupOID="DS">
         <ItemData ItemOID="DS.STUDYID" Value="CDISCPILOT01"/>
         <ItemData ItemOID="DS.DOMAIN" Value="DS"/>
         <ItemData ItemOID="DS.USUBJID" Value="01-701-1317"/>
         <ItemData ItemOID="DS.DSSEQ" Value="2"/>
         <ItemData ItemOID="DS.DSTERM" Value="FINAL LAB VISIT"/>
         <ItemData ItemOID="DS.DSDECOD" Value="FINAL LAB VISIT"/>
         <ItemData ItemOID="DS.DSCAT" Value="OTHER EVENT"/>
         <ItemData ItemOID="DS.VISITNUM" Value="13"/>
         <ItemData ItemOID="DS.VISIT" Value="WEEK 26"/>
         <ItemData ItemOID="DS.DSDTC" Value="2014-11-20T11:54"/>
         <ItemData ItemOID="DS.DSSTDTC" Value="2014-11-20"/>
         <ItemData ItemOID="DS.DSSTDY" Value="183"/>
      </ItemGroupData>
      <ItemGroupData data:ItemGroupDataSeq="72" ItemGroupOID="DS">
         <ItemData ItemOID="DS.STUDYID" Value="CDISCPILOT01"/>
         <ItemData ItemOID="DS.DOMAIN" Value="DS"/>
         <ItemData ItemOID="DS.USUBJID" Value="01-701-1324"/>
         <ItemData ItemOID="DS.DSSEQ" Value="1"/>
         <ItemData ItemOID="DS.DSTERM" Value="PROTOCOL COMPLETED"/>
         <ItemData ItemOID="DS.DSDECOD" Value="COMPLETED"/>
         <ItemData ItemOID="DS.DSCAT" Value="DISPOSITION EVENT"/>
         <ItemData ItemOID="DS.VISITNUM" Value="13"/>
         <ItemData ItemOID="DS.VISIT" Value="WEEK 26"/>
         <ItemData ItemOID="DS.DSDTC" Value="2013-04-02"/>
         <ItemData ItemOID="DS.DSSTDTC" Value="2013-04-02"/>
         <ItemData ItemOID="DS.DSSTDY" Value="183"/>
      </ItemGroupData>
      <ItemGroupData data:ItemGroupDataSeq="73" ItemGroupOID="DS">
         <ItemData ItemOID="DS.STUDYID" Value="CDISCPILOT01"/>
         <ItemData ItemOID="DS.DOMAIN" Value="DS"/>
         <ItemData ItemOID="DS.USUBJID" Value="01-701-1324"/>
         <ItemData ItemOID="DS.DSSEQ" Value="2"/>
         <ItemData ItemOID="DS.DSTERM" Value="FINAL LAB VISIT"/>
         <ItemData ItemOID="DS.DSDECOD" Value="FINAL LAB VISIT"/>
         <ItemData ItemOID="DS.DSCAT" Value="OTHER EVENT"/>
         <ItemData ItemOID="DS.VISITNUM" Value="13"/>
         <ItemData ItemOID="DS.VISIT" Value="WEEK 26"/>
         <ItemData ItemOID="DS.DSDTC" Value="2013-04-02T11:35"/>
         <ItemData ItemOID="DS.DSSTDTC" Value="2013-04-02"/>
         <ItemData ItemOID="DS.DSSTDY" Value="183"/>
      </ItemGroupData>
      <ItemGroupData data:ItemGroupDataSeq="74" ItemGroupOID="DS">
         <ItemData ItemOID="DS.STUDYID" Value="CDISCPILOT01"/>
         <ItemData ItemOID="DS.DOMAIN" Value="DS"/>
         <ItemData ItemOID="DS.USUBJID" Value="01-701-1341"/>
         <ItemData ItemOID="DS.DSSEQ" Value="1"/>
         <ItemData ItemOID="DS.DSSPID" Value="14"/>
         <ItemData ItemOID="DS.DSTERM" Value="ADVERSE EVENT"/>
         <ItemData ItemOID="DS.DSDECOD" Value="ADVERSE EVENT"/>
         <ItemData ItemOID="DS.DSCAT" Value="DISPOSITION EVENT"/>
         <ItemData ItemOID="DS.VISITNUM" Value="5"/>
         <ItemData ItemOID="DS.VISIT" Value="WEEK 4"/>
         <ItemData ItemOID="DS.DSDTC" Value="2013-02-07"/>
         <ItemData ItemOID="DS.DSSTDTC" Value="2013-02-07"/>
         <ItemData ItemOID="DS.DSSTDY" Value="34"/>
      </ItemGroupData>
      <ItemGroupData data:ItemGroupDataSeq="75" ItemGroupOID="DS">
         <ItemData ItemOID="DS.STUDYID" Value="CDISCPILOT01"/>
         <ItemData ItemOID="DS.DOMAIN" Value="DS"/>
         <ItemData ItemOID="DS.USUBJID" Value="01-701-1341"/>
         <ItemData ItemOID="DS.DSSEQ" Value="2"/>
         <ItemData ItemOID="DS.DSTERM" Value="FINAL LAB VISIT"/>
         <ItemData ItemOID="DS.DSDECOD" Value="FINAL LAB VISIT"/>
         <ItemData ItemOID="DS.DSCAT" Value="OTHER EVENT"/>
         <ItemData ItemOID="DS.VISITNUM" Value="5"/>
         <ItemData ItemOID="DS.VISIT" Value="WEEK 4"/>
         <ItemData ItemOID="DS.DSDTC" Value="2013-02-07T15:16"/>
         <ItemData ItemOID="DS.DSSTDTC" Value="2013-02-07"/>
         <ItemData ItemOID="DS.DSSTDY" Value="34"/>
      </ItemGroupData>
      <ItemGroupData data:ItemGroupDataSeq="76" ItemGroupOID="DS">
         <ItemData ItemOID="DS.STUDYID" Value="CDISCPILOT01"/>
         <ItemData ItemOID="DS.DOMAIN" Value="DS"/>
         <ItemData ItemOID="DS.USUBJID" Value="01-701-1345"/>
         <ItemData ItemOID="DS.DSSEQ" Value="1"/>
         <ItemData ItemOID="DS.DSTERM"
                   Value="SPONSOR DECISION (STUDY OR PATIENT DISCONTINUED BY THE SPONSOR)"/>
         <ItemData ItemOID="DS.DSDECOD" Value="STUDY TERMINATED BY SPONSOR"/>
         <ItemData ItemOID="DS.DSCAT" Value="DISPOSITION EVENT"/>
         <ItemData ItemOID="DS.VISITNUM" Value="12"/>
         <ItemData ItemOID="DS.VISIT" Value="WEEK 24"/>
         <ItemData ItemOID="DS.DSDTC" Value="2014-03-18"/>
         <ItemData ItemOID="DS.DSSTDTC" Value="2014-03-18"/>
         <ItemData ItemOID="DS.DSSTDY" Value="162"/>
      </ItemGroupData>
      <ItemGroupData data:ItemGroupDataSeq="77" ItemGroupOID="DS">
         <ItemData ItemOID="DS.STUDYID" Value="CDISCPILOT01"/>
         <ItemData ItemOID="DS.DOMAIN" Value="DS"/>
         <ItemData ItemOID="DS.USUBJID" Value="01-701-1345"/>
         <ItemData ItemOID="DS.DSSEQ" Value="2"/>
         <ItemData ItemOID="DS.DSTERM" Value="FINAL LAB VISIT"/>
         <ItemData ItemOID="DS.DSDECOD" Value="FINAL LAB VISIT"/>
         <ItemData ItemOID="DS.DSCAT" Value="OTHER EVENT"/>
         <ItemData ItemOID="DS.VISITNUM" Value="12"/>
         <ItemData ItemOID="DS.VISIT" Value="WEEK 24"/>
         <ItemData ItemOID="DS.DSDTC" Value="2014-03-18T14:12"/>
         <ItemData ItemOID="DS.DSSTDTC" Value="2014-03-18"/>
         <ItemData ItemOID="DS.DSSTDY" Value="162"/>
      </ItemGroupData>
      <ItemGroupData data:ItemGroupDataSeq="78" ItemGroupOID="DS">
         <ItemData ItemOID="DS.STUDYID" Value="CDISCPILOT01"/>
         <ItemData ItemOID="DS.DOMAIN" Value="DS"/>
         <ItemData ItemOID="DS.USUBJID" Value="01-701-1356"/>
         <ItemData ItemOID="DS.DSSEQ" Value="1"/>
         <ItemData ItemOID="DS.DSTERM" Value="SCREEN FAILURE"/>
         <ItemData ItemOID="DS.DSDECOD" Value="SCREEN FAILURE"/>
         <ItemData ItemOID="DS.DSCAT" Value="DISPOSITION EVENT"/>
         <ItemData ItemOID="DS.VISITNUM" Value="1"/>
         <ItemData ItemOID="DS.VISIT" Value="SCREENING 1"/>
         <ItemData ItemOID="DS.DSDTC" Value="2014-04-01"/>
         <ItemData ItemOID="DS.DSSTDTC" Value="2014-04-01"/>
      </ItemGroupData>
      <ItemGroupData data:ItemGroupDataSeq="79" ItemGroupOID="DS">
         <ItemData ItemOID="DS.STUDYID" Value="CDISCPILOT01"/>
         <ItemData ItemOID="DS.DOMAIN" Value="DS"/>
         <ItemData ItemOID="DS.USUBJID" Value="01-701-1360"/>
         <ItemData ItemOID="DS.DSSEQ" Value="1"/>
         <ItemData ItemOID="DS.DSTERM" Value="PMD DECISION DUE TO AE'S"/>
         <ItemData ItemOID="DS.DSDECOD" Value="PHYSICIAN DECISION"/>
         <ItemData ItemOID="DS.DSCAT" Value="DISPOSITION EVENT"/>
         <ItemData ItemOID="DS.VISITNUM" Value="4"/>
         <ItemData ItemOID="DS.VISIT" Value="WEEK 2"/>
         <ItemData ItemOID="DS.DSDTC" Value="2013-08-14"/>
         <ItemData ItemOID="DS.DSSTDTC" Value="2013-08-14"/>
         <ItemData ItemOID="DS.DSSTDY" Value="15"/>
      </ItemGroupData>
      <ItemGroupData data:ItemGroupDataSeq="80" ItemGroupOID="DS">
         <ItemData ItemOID="DS.STUDYID" Value="CDISCPILOT01"/>
         <ItemData ItemOID="DS.DOMAIN" Value="DS"/>
         <ItemData ItemOID="DS.USUBJID" Value="01-701-1360"/>
         <ItemData ItemOID="DS.DSSEQ" Value="2"/>
         <ItemData ItemOID="DS.DSTERM" Value="FINAL LAB VISIT"/>
         <ItemData ItemOID="DS.DSDECOD" Value="FINAL LAB VISIT"/>
         <ItemData ItemOID="DS.DSCAT" Value="OTHER EVENT"/>
         <ItemData ItemOID="DS.VISITNUM" Value="4"/>
         <ItemData ItemOID="DS.VISIT" Value="WEEK 2"/>
         <ItemData ItemOID="DS.DSDTC" Value="2013-08-14T15:17"/>
         <ItemData ItemOID="DS.DSSTDTC" Value="2013-08-14"/>
         <ItemData ItemOID="DS.DSSTDY" Value="15"/>
      </ItemGroupData>
      <ItemGroupData data:ItemGroupDataSeq="81" ItemGroupOID="DS">
         <ItemData ItemOID="DS.STUDYID" Value="CDISCPILOT01"/>
         <ItemData ItemOID="DS.DOMAIN" Value="DS"/>
         <ItemData ItemOID="DS.USUBJID" Value="01-701-1360"/>
         <ItemData ItemOID="DS.DSSEQ" Value="3"/>
         <ItemData ItemOID="DS.DSTERM" Value="FINAL RETRIEVAL VISIT"/>
         <ItemData ItemOID="DS.DSDECOD" Value="FINAL RETRIEVAL VISIT"/>
         <ItemData ItemOID="DS.DSCAT" Value="OTHER EVENT"/>
         <ItemData ItemOID="DS.VISITNUM" Value="201"/>
         <ItemData ItemOID="DS.VISIT" Value="RETRIEVAL"/>
         <ItemData ItemOID="DS.DSDTC" Value="2014-02-11"/>
         <ItemData ItemOID="DS.DSSTDTC" Value="2014-02-11"/>
         <ItemData ItemOID="DS.DSSTDY" Value="196"/>
      </ItemGroupData>
      <ItemGroupData data:ItemGroupDataSeq="82" ItemGroupOID="DS">
         <ItemData ItemOID="DS.STUDYID" Value="CDISCPILOT01"/>
         <ItemData ItemOID="DS.DOMAIN" Value="DS"/>
         <ItemData ItemOID="DS.USUBJID" Value="01-701-1363"/>
         <ItemData ItemOID="DS.DSSEQ" Value="1"/>
         <ItemData ItemOID="DS.DSTERM" Value="PROTOCOL COMPLETED"/>
         <ItemData ItemOID="DS.DSDECOD" Value="COMPLETED"/>
         <ItemData ItemOID="DS.DSCAT" Value="DISPOSITION EVENT"/>
         <ItemData ItemOID="DS.VISITNUM" Value="13"/>
         <ItemData ItemOID="DS.VISIT" Value="WEEK 26"/>
         <ItemData ItemOID="DS.DSDTC" Value="2013-11-27"/>
         <ItemData ItemOID="DS.DSSTDTC" Value="2013-11-27"/>
         <ItemData ItemOID="DS.DSSTDY" Value="182"/>
      </ItemGroupData>
      <ItemGroupData data:ItemGroupDataSeq="83" ItemGroupOID="DS">
         <ItemData ItemOID="DS.STUDYID" Value="CDISCPILOT01"/>
         <ItemData ItemOID="DS.DOMAIN" Value="DS"/>
         <ItemData ItemOID="DS.USUBJID" Value="01-701-1363"/>
         <ItemData ItemOID="DS.DSSEQ" Value="2"/>
         <ItemData ItemOID="DS.DSTERM" Value="FINAL LAB VISIT"/>
         <ItemData ItemOID="DS.DSDECOD" Value="FINAL LAB VISIT"/>
         <ItemData ItemOID="DS.DSCAT" Value="OTHER EVENT"/>
         <ItemData ItemOID="DS.VISITNUM" Value="13"/>
         <ItemData ItemOID="DS.VISIT" Value="WEEK 26"/>
         <ItemData ItemOID="DS.DSDTC" Value="2013-11-27T10:00"/>
         <ItemData ItemOID="DS.DSSTDTC" Value="2013-11-27"/>
         <ItemData ItemOID="DS.DSSTDY" Value="182"/>
      </ItemGroupData>
      <ItemGroupData data:ItemGroupDataSeq="84" ItemGroupOID="DS">
         <ItemData ItemOID="DS.STUDYID" Value="CDISCPILOT01"/>
         <ItemData ItemOID="DS.DOMAIN" Value="DS"/>
         <ItemData ItemOID="DS.USUBJID" Value="01-701-1369"/>
         <ItemData ItemOID="DS.DSSEQ" Value="1"/>
         <ItemData ItemOID="DS.DSTERM" Value="SCREEN FAILURE"/>
         <ItemData ItemOID="DS.DSDECOD" Value="SCREEN FAILURE"/>
         <ItemData ItemOID="DS.DSCAT" Value="DISPOSITION EVENT"/>
         <ItemData ItemOID="DS.VISITNUM" Value="1"/>
         <ItemData ItemOID="DS.VISIT" Value="SCREENING 1"/>
         <ItemData ItemOID="DS.DSDTC" Value="2013-09-18"/>
         <ItemData ItemOID="DS.DSSTDTC" Value="2013-09-18"/>
      </ItemGroupData>
      <ItemGroupData data:ItemGroupDataSeq="85" ItemGroupOID="DS">
         <ItemData ItemOID="DS.STUDYID" Value="CDISCPILOT01"/>
         <ItemData ItemOID="DS.DOMAIN" Value="DS"/>
         <ItemData ItemOID="DS.USUBJID" Value="01-701-1383"/>
         <ItemData ItemOID="DS.DSSEQ" Value="1"/>
         <ItemData ItemOID="DS.DSTERM" Value="PROTOCOL COMPLETED"/>
         <ItemData ItemOID="DS.DSDECOD" Value="COMPLETED"/>
         <ItemData ItemOID="DS.DSCAT" Value="DISPOSITION EVENT"/>
         <ItemData ItemOID="DS.VISITNUM" Value="13"/>
         <ItemData ItemOID="DS.VISIT" Value="WEEK 26"/>
         <ItemData ItemOID="DS.DSDTC" Value="2013-08-06"/>
         <ItemData ItemOID="DS.DSSTDTC" Value="2013-08-06"/>
         <ItemData ItemOID="DS.DSSTDY" Value="184"/>
      </ItemGroupData>
      <ItemGroupData data:ItemGroupDataSeq="86" ItemGroupOID="DS">
         <ItemData ItemOID="DS.STUDYID" Value="CDISCPILOT01"/>
         <ItemData ItemOID="DS.DOMAIN" Value="DS"/>
         <ItemData ItemOID="DS.USUBJID" Value="01-701-1383"/>
         <ItemData ItemOID="DS.DSSEQ" Value="2"/>
         <ItemData ItemOID="DS.DSTERM" Value="FINAL LAB VISIT"/>
         <ItemData ItemOID="DS.DSDECOD" Value="FINAL LAB VISIT"/>
         <ItemData ItemOID="DS.DSCAT" Value="OTHER EVENT"/>
         <ItemData ItemOID="DS.VISITNUM" Value="13"/>
         <ItemData ItemOID="DS.VISIT" Value="WEEK 26"/>
         <ItemData ItemOID="DS.DSDTC" Value="2013-08-06T12:00"/>
         <ItemData ItemOID="DS.DSSTDTC" Value="2013-08-06"/>
         <ItemData ItemOID="DS.DSSTDY" Value="184"/>
      </ItemGroupData>
      <ItemGroupData data:ItemGroupDataSeq="87" ItemGroupOID="DS">
         <ItemData ItemOID="DS.STUDYID" Value="CDISCPILOT01"/>
         <ItemData ItemOID="DS.DOMAIN" Value="DS"/>
         <ItemData ItemOID="DS.USUBJID" Value="01-701-1386"/>
         <ItemData ItemOID="DS.DSSEQ" Value="1"/>
         <ItemData ItemOID="DS.DSTERM" Value="SCREEN FAILURE"/>
         <ItemData ItemOID="DS.DSDECOD" Value="SCREEN FAILURE"/>
         <ItemData ItemOID="DS.DSCAT" Value="DISPOSITION EVENT"/>
         <ItemData ItemOID="DS.VISITNUM" Value="1"/>
         <ItemData ItemOID="DS.VISIT" Value="SCREENING 1"/>
         <ItemData ItemOID="DS.DSDTC" Value="2013-12-28"/>
         <ItemData ItemOID="DS.DSSTDTC" Value="2013-12-28"/>
      </ItemGroupData>
      <ItemGroupData data:ItemGroupDataSeq="88" ItemGroupOID="DS">
         <ItemData ItemOID="DS.STUDYID" Value="CDISCPILOT01"/>
         <ItemData ItemOID="DS.DOMAIN" Value="DS"/>
         <ItemData ItemOID="DS.USUBJID" Value="01-701-1387"/>
         <ItemData ItemOID="DS.DSSEQ" Value="1"/>
         <ItemData ItemOID="DS.DSTERM" Value="PROTOCOL VIOLATION"/>
         <ItemData ItemOID="DS.DSDECOD" Value="PROTOCOL VIOLATION"/>
         <ItemData ItemOID="DS.DSCAT" Value="DISPOSITION EVENT"/>
         <ItemData ItemOID="DS.VISITNUM" Value="4"/>
         <ItemData ItemOID="DS.VISIT" Value="WEEK 2"/>
         <ItemData ItemOID="DS.DSDTC" Value="2014-03-25"/>
         <ItemData ItemOID="DS.DSSTDTC" Value="2014-03-25"/>
         <ItemData ItemOID="DS.DSSTDY" Value="14"/>
      </ItemGroupData>
      <ItemGroupData data:ItemGroupDataSeq="89" ItemGroupOID="DS">
         <ItemData ItemOID="DS.STUDYID" Value="CDISCPILOT01"/>
         <ItemData ItemOID="DS.DOMAIN" Value="DS"/>
         <ItemData ItemOID="DS.USUBJID" Value="01-701-1387"/>
         <ItemData ItemOID="DS.DSSEQ" Value="2"/>
         <ItemData ItemOID="DS.DSTERM" Value="FINAL LAB VISIT"/>
         <ItemData ItemOID="DS.DSDECOD" Value="FINAL LAB VISIT"/>
         <ItemData ItemOID="DS.DSCAT" Value="OTHER EVENT"/>
         <ItemData ItemOID="DS.VISITNUM" Value="4"/>
         <ItemData ItemOID="DS.VISIT" Value="WEEK 2"/>
         <ItemData ItemOID="DS.DSDTC" Value="2014-03-25T10:40"/>
         <ItemData ItemOID="DS.DSSTDTC" Value="2014-03-25"/>
         <ItemData ItemOID="DS.DSSTDY" Value="14"/>
      </ItemGroupData>
      <ItemGroupData data:ItemGroupDataSeq="90" ItemGroupOID="DS">
         <ItemData ItemOID="DS.STUDYID" Value="CDISCPILOT01"/>
         <ItemData ItemOID="DS.DOMAIN" Value="DS"/>
         <ItemData ItemOID="DS.USUBJID" Value="01-701-1387"/>
         <ItemData ItemOID="DS.DSSEQ" Value="3"/>
         <ItemData ItemOID="DS.DSTERM" Value="FINAL RETRIEVAL VISIT"/>
         <ItemData ItemOID="DS.DSDECOD" Value="FINAL RETRIEVAL VISIT"/>
         <ItemData ItemOID="DS.DSCAT" Value="OTHER EVENT"/>
         <ItemData ItemOID="DS.VISITNUM" Value="201"/>
         <ItemData ItemOID="DS.VISIT" Value="RETRIEVAL"/>
         <ItemData ItemOID="DS.DSDTC" Value="2014-08-27"/>
         <ItemData ItemOID="DS.DSSTDTC" Value="2014-08-27"/>
         <ItemData ItemOID="DS.DSSTDY" Value="169"/>
      </ItemGroupData>
      <ItemGroupData data:ItemGroupDataSeq="91" ItemGroupOID="DS">
         <ItemData ItemOID="DS.STUDYID" Value="CDISCPILOT01"/>
         <ItemData ItemOID="DS.DOMAIN" Value="DS"/>
         <ItemData ItemOID="DS.USUBJID" Value="01-701-1392"/>
         <ItemData ItemOID="DS.DSSEQ" Value="1"/>
         <ItemData ItemOID="DS.DSTERM" Value="PROTOCOL COMPLETED"/>
         <ItemData ItemOID="DS.DSDECOD" Value="COMPLETED"/>
         <ItemData ItemOID="DS.DSCAT" Value="DISPOSITION EVENT"/>
         <ItemData ItemOID="DS.VISITNUM" Value="13"/>
         <ItemData ItemOID="DS.VISIT" Value="WEEK 26"/>
         <ItemData ItemOID="DS.DSDTC" Value="2013-04-28"/>
         <ItemData ItemOID="DS.DSSTDTC" Value="2013-04-28"/>
         <ItemData ItemOID="DS.DSSTDY" Value="183"/>
      </ItemGroupData>
      <ItemGroupData data:ItemGroupDataSeq="92" ItemGroupOID="DS">
         <ItemData ItemOID="DS.STUDYID" Value="CDISCPILOT01"/>
         <ItemData ItemOID="DS.DOMAIN" Value="DS"/>
         <ItemData ItemOID="DS.USUBJID" Value="01-701-1392"/>
         <ItemData ItemOID="DS.DSSEQ" Value="2"/>
         <ItemData ItemOID="DS.DSTERM" Value="FINAL LAB VISIT"/>
         <ItemData ItemOID="DS.DSDECOD" Value="FINAL LAB VISIT"/>
         <ItemData ItemOID="DS.DSCAT" Value="OTHER EVENT"/>
         <ItemData ItemOID="DS.VISITNUM" Value="13"/>
         <ItemData ItemOID="DS.VISIT" Value="WEEK 26"/>
         <ItemData ItemOID="DS.DSDTC" Value="2013-04-28T11:30"/>
         <ItemData ItemOID="DS.DSSTDTC" Value="2013-04-28"/>
         <ItemData ItemOID="DS.DSSTDY" Value="183"/>
      </ItemGroupData>
      <ItemGroupData data:ItemGroupDataSeq="93" ItemGroupOID="DS">
         <ItemData ItemOID="DS.STUDYID" Value="CDISCPILOT01"/>
         <ItemData ItemOID="DS.DOMAIN" Value="DS"/>
         <ItemData ItemOID="DS.USUBJID" Value="01-701-1411"/>
         <ItemData ItemOID="DS.DSSEQ" Value="1"/>
         <ItemData ItemOID="DS.DSTERM" Value="SCREEN FAILURE"/>
         <ItemData ItemOID="DS.DSDECOD" Value="SCREEN FAILURE"/>
         <ItemData ItemOID="DS.DSCAT" Value="DISPOSITION EVENT"/>
         <ItemData ItemOID="DS.VISITNUM" Value="1"/>
         <ItemData ItemOID="DS.VISIT" Value="SCREENING 1"/>
         <ItemData ItemOID="DS.DSDTC" Value="2012-11-14"/>
         <ItemData ItemOID="DS.DSSTDTC" Value="2012-11-14"/>
      </ItemGroupData>
      <ItemGroupData data:ItemGroupDataSeq="94" ItemGroupOID="DS">
         <ItemData ItemOID="DS.STUDYID" Value="CDISCPILOT01"/>
         <ItemData ItemOID="DS.DOMAIN" Value="DS"/>
         <ItemData ItemOID="DS.USUBJID" Value="01-701-1415"/>
         <ItemData ItemOID="DS.DSSEQ" Value="1"/>
         <ItemData ItemOID="DS.DSTERM" Value="PROTOCOL COMPLETED"/>
         <ItemData ItemOID="DS.DSDECOD" Value="COMPLETED"/>
         <ItemData ItemOID="DS.DSCAT" Value="DISPOSITION EVENT"/>
         <ItemData ItemOID="DS.VISITNUM" Value="13"/>
         <ItemData ItemOID="DS.VISIT" Value="WEEK 26"/>
         <ItemData ItemOID="DS.DSDTC" Value="2014-03-24"/>
         <ItemData ItemOID="DS.DSSTDTC" Value="2014-03-24"/>
         <ItemData ItemOID="DS.DSSTDY" Value="183"/>
      </ItemGroupData>
      <ItemGroupData data:ItemGroupDataSeq="95" ItemGroupOID="DS">
         <ItemData ItemOID="DS.STUDYID" Value="CDISCPILOT01"/>
         <ItemData ItemOID="DS.DOMAIN" Value="DS"/>
         <ItemData ItemOID="DS.USUBJID" Value="01-701-1415"/>
         <ItemData ItemOID="DS.DSSEQ" Value="2"/>
         <ItemData ItemOID="DS.DSTERM" Value="FINAL LAB VISIT"/>
         <ItemData ItemOID="DS.DSDECOD" Value="FINAL LAB VISIT"/>
         <ItemData ItemOID="DS.DSCAT" Value="OTHER EVENT"/>
         <ItemData ItemOID="DS.VISITNUM" Value="13"/>
         <ItemData ItemOID="DS.VISIT" Value="WEEK 26"/>
         <ItemData ItemOID="DS.DSDTC" Value="2014-03-24T12:34"/>
         <ItemData ItemOID="DS.DSSTDTC" Value="2014-03-24"/>
         <ItemData ItemOID="DS.DSSTDY" Value="183"/>
      </ItemGroupData>
      <ItemGroupData data:ItemGroupDataSeq="96" ItemGroupOID="DS">
         <ItemData ItemOID="DS.STUDYID" Value="CDISCPILOT01"/>
         <ItemData ItemOID="DS.DOMAIN" Value="DS"/>
         <ItemData ItemOID="DS.USUBJID" Value="01-701-1429"/>
         <ItemData ItemOID="DS.DSSEQ" Value="1"/>
         <ItemData ItemOID="DS.DSTERM" Value="WITHDRAW CONSENT DUE TO COMPLIANCY ISSUE"/>
         <ItemData ItemOID="DS.DSDECOD" Value="WITHDRAWAL BY SUBJECT"/>
         <ItemData ItemOID="DS.DSCAT" Value="DISPOSITION EVENT"/>
         <ItemData ItemOID="DS.VISITNUM" Value="7"/>
         <ItemData ItemOID="DS.VISIT" Value="WEEK 6"/>
         <ItemData ItemOID="DS.DSDTC" Value="2013-04-30"/>
         <ItemData ItemOID="DS.DSSTDTC" Value="2013-04-30"/>
         <ItemData ItemOID="DS.DSSTDY" Value="43"/>
      </ItemGroupData>
      <ItemGroupData data:ItemGroupDataSeq="97" ItemGroupOID="DS">
         <ItemData ItemOID="DS.STUDYID" Value="CDISCPILOT01"/>
         <ItemData ItemOID="DS.DOMAIN" Value="DS"/>
         <ItemData ItemOID="DS.USUBJID" Value="01-701-1429"/>
         <ItemData ItemOID="DS.DSSEQ" Value="2"/>
         <ItemData ItemOID="DS.DSTERM" Value="FINAL LAB VISIT"/>
         <ItemData ItemOID="DS.DSDECOD" Value="FINAL LAB VISIT"/>
         <ItemData ItemOID="DS.DSCAT" Value="OTHER EVENT"/>
         <ItemData ItemOID="DS.VISITNUM" Value="7"/>
         <ItemData ItemOID="DS.VISIT" Value="WEEK 6"/>
         <ItemData ItemOID="DS.DSDTC" Value="2013-04-30T12:22"/>
         <ItemData ItemOID="DS.DSSTDTC" Value="2013-04-30"/>
         <ItemData ItemOID="DS.DSSTDY" Value="43"/>
      </ItemGroupData>
      <ItemGroupData data:ItemGroupDataSeq="98" ItemGroupOID="DS">
         <ItemData ItemOID="DS.STUDYID" Value="CDISCPILOT01"/>
         <ItemData ItemOID="DS.DOMAIN" Value="DS"/>
         <ItemData ItemOID="DS.USUBJID" Value="01-701-1440"/>
         <ItemData ItemOID="DS.DSSEQ" Value="1"/>
         <ItemData ItemOID="DS.DSTERM" Value="PROTOCOL COMPLETED"/>
         <ItemData ItemOID="DS.DSDECOD" Value="COMPLETED"/>
         <ItemData ItemOID="DS.DSCAT" Value="DISPOSITION EVENT"/>
         <ItemData ItemOID="DS.VISITNUM" Value="13"/>
         <ItemData ItemOID="DS.VISIT" Value="WEEK 26"/>
         <ItemData ItemOID="DS.DSDTC" Value="2014-02-05"/>
         <ItemData ItemOID="DS.DSSTDTC" Value="2014-02-05"/>
         <ItemData ItemOID="DS.DSSTDY" Value="182"/>
      </ItemGroupData>
      <ItemGroupData data:ItemGroupDataSeq="99" ItemGroupOID="DS">
         <ItemData ItemOID="DS.STUDYID" Value="CDISCPILOT01"/>
         <ItemData ItemOID="DS.DOMAIN" Value="DS"/>
         <ItemData ItemOID="DS.USUBJID" Value="01-701-1440"/>
         <ItemData ItemOID="DS.DSSEQ" Value="2"/>
         <ItemData ItemOID="DS.DSTERM" Value="FINAL LAB VISIT"/>
         <ItemData ItemOID="DS.DSDECOD" Value="FINAL LAB VISIT"/>
         <ItemData ItemOID="DS.DSCAT" Value="OTHER EVENT"/>
         <ItemData ItemOID="DS.VISITNUM" Value="13"/>
         <ItemData ItemOID="DS.VISIT" Value="WEEK 26"/>
         <ItemData ItemOID="DS.DSDTC" Value="2014-02-05T11:25"/>
         <ItemData ItemOID="DS.DSSTDTC" Value="2014-02-05"/>
         <ItemData ItemOID="DS.DSSTDY" Value="182"/>
      </ItemGroupData>
      <ItemGroupData data:ItemGroupDataSeq="100" ItemGroupOID="DS">
         <ItemData ItemOID="DS.STUDYID" Value="CDISCPILOT01"/>
         <ItemData ItemOID="DS.DOMAIN" Value="DS"/>
         <ItemData ItemOID="DS.USUBJID" Value="01-701-1442"/>
         <ItemData ItemOID="DS.DSSEQ" Value="1"/>
         <ItemData ItemOID="DS.DSTERM" Value="PROTOCOL COMPLETED"/>
         <ItemData ItemOID="DS.DSDECOD" Value="COMPLETED"/>
         <ItemData ItemOID="DS.DSCAT" Value="DISPOSITION EVENT"/>
         <ItemData ItemOID="DS.VISITNUM" Value="13"/>
         <ItemData ItemOID="DS.VISIT" Value="WEEK 26"/>
         <ItemData ItemOID="DS.DSDTC" Value="2014-04-26"/>
         <ItemData ItemOID="DS.DSSTDTC" Value="2014-04-26"/>
         <ItemData ItemOID="DS.DSSTDY" Value="183"/>
      </ItemGroupData>
      <ItemGroupData data:ItemGroupDataSeq="101" ItemGroupOID="DS">
         <ItemData ItemOID="DS.STUDYID" Value="CDISCPILOT01"/>
         <ItemData ItemOID="DS.DOMAIN" Value="DS"/>
         <ItemData ItemOID="DS.USUBJID" Value="01-701-1442"/>
         <ItemData ItemOID="DS.DSSEQ" Value="2"/>
         <ItemData ItemOID="DS.DSTERM" Value="FINAL LAB VISIT"/>
         <ItemData ItemOID="DS.DSDECOD" Value="FINAL LAB VISIT"/>
         <ItemData ItemOID="DS.DSCAT" Value="OTHER EVENT"/>
         <ItemData ItemOID="DS.VISITNUM" Value="13"/>
         <ItemData ItemOID="DS.VISIT" Value="WEEK 26"/>
         <ItemData ItemOID="DS.DSDTC" Value="2014-04-26T10:00"/>
         <ItemData ItemOID="DS.DSSTDTC" Value="2014-04-26"/>
         <ItemData ItemOID="DS.DSSTDY" Value="183"/>
      </ItemGroupData>
      <ItemGroupData data:ItemGroupDataSeq="102" ItemGroupOID="DS">
         <ItemData ItemOID="DS.STUDYID" Value="CDISCPILOT01"/>
         <ItemData ItemOID="DS.DOMAIN" Value="DS"/>
         <ItemData ItemOID="DS.USUBJID" Value="01-701-1444"/>
         <ItemData ItemOID="DS.DSSEQ" Value="1"/>
         <ItemData ItemOID="DS.DSSPID" Value="29"/>
         <ItemData ItemOID="DS.DSTERM" Value="ADVERSE EVENT"/>
         <ItemData ItemOID="DS.DSDECOD" Value="ADVERSE EVENT"/>
         <ItemData ItemOID="DS.DSCAT" Value="DISPOSITION EVENT"/>
         <ItemData ItemOID="DS.VISITNUM" Value="7"/>
         <ItemData ItemOID="DS.VISIT" Value="WEEK 6"/>
         <ItemData ItemOID="DS.DSDTC" Value="2013-02-13"/>
         <ItemData ItemOID="DS.DSSTDTC" Value="2013-02-13"/>
         <ItemData ItemOID="DS.DSSTDY" Value="40"/>
      </ItemGroupData>
      <ItemGroupData data:ItemGroupDataSeq="103" ItemGroupOID="DS">
         <ItemData ItemOID="DS.STUDYID" Value="CDISCPILOT01"/>
         <ItemData ItemOID="DS.DOMAIN" Value="DS"/>
         <ItemData ItemOID="DS.USUBJID" Value="01-701-1444"/>
         <ItemData ItemOID="DS.DSSEQ" Value="2"/>
         <ItemData ItemOID="DS.DSTERM" Value="FINAL LAB VISIT"/>
         <ItemData ItemOID="DS.DSDECOD" Value="FINAL LAB VISIT"/>
         <ItemData ItemOID="DS.DSCAT" Value="OTHER EVENT"/>
         <ItemData ItemOID="DS.VISITNUM" Value="7"/>
         <ItemData ItemOID="DS.VISIT" Value="WEEK 6"/>
         <ItemData ItemOID="DS.DSDTC" Value="2013-02-13T15:53"/>
         <ItemData ItemOID="DS.DSSTDTC" Value="2013-02-13"/>
         <ItemData ItemOID="DS.DSSTDY" Value="40"/>
      </ItemGroupData>
      <ItemGroupData data:ItemGroupDataSeq="104" ItemGroupOID="DS">
         <ItemData ItemOID="DS.STUDYID" Value="CDISCPILOT01"/>
         <ItemData ItemOID="DS.DOMAIN" Value="DS"/>
         <ItemData ItemOID="DS.USUBJID" Value="01-701-1444"/>
         <ItemData ItemOID="DS.DSSEQ" Value="3"/>
         <ItemData ItemOID="DS.DSTERM" Value="FINAL RETRIEVAL VISIT"/>
         <ItemData ItemOID="DS.DSDECOD" Value="FINAL RETRIEVAL VISIT"/>
         <ItemData ItemOID="DS.DSCAT" Value="OTHER EVENT"/>
         <ItemData ItemOID="DS.VISITNUM" Value="201"/>
         <ItemData ItemOID="DS.VISIT" Value="RETRIEVAL"/>
         <ItemData ItemOID="DS.DSDTC" Value="2013-06-20"/>
         <ItemData ItemOID="DS.DSSTDTC" Value="2013-06-20"/>
         <ItemData ItemOID="DS.DSSTDY" Value="167"/>
      </ItemGroupData>
      <ItemGroupData data:ItemGroupDataSeq="105" ItemGroupOID="DS">
         <ItemData ItemOID="DS.STUDYID" Value="CDISCPILOT01"/>
         <ItemData ItemOID="DS.DOMAIN" Value="DS"/>
         <ItemData ItemOID="DS.USUBJID" Value="01-702-1082"/>
         <ItemData ItemOID="DS.DSSEQ" Value="1"/>
         <ItemData ItemOID="DS.DSTERM"
                   Value="PT FINDS PATCHES&#34;INCONVENIENT &amp; ITCHY;PT PREFERS'PILLS'&#34;"/>
         <ItemData ItemOID="DS.DSDECOD" Value="WITHDRAWAL BY SUBJECT"/>
         <ItemData ItemOID="DS.DSCAT" Value="DISPOSITION EVENT"/>
         <ItemData ItemOID="DS.VISITNUM" Value="9"/>
         <ItemData ItemOID="DS.VISIT" Value="WEEK 12"/>
         <ItemData ItemOID="DS.DSDTC" Value="2013-11-17"/>
         <ItemData ItemOID="DS.DSSTDTC" Value="2013-11-17"/>
         <ItemData ItemOID="DS.DSSTDY" Value="115"/>
      </ItemGroupData>
      <ItemGroupData data:ItemGroupDataSeq="106" ItemGroupOID="DS">
         <ItemData ItemOID="DS.STUDYID" Value="CDISCPILOT01"/>
         <ItemData ItemOID="DS.DOMAIN" Value="DS"/>
         <ItemData ItemOID="DS.USUBJID" Value="01-702-1082"/>
         <ItemData ItemOID="DS.DSSEQ" Value="2"/>
         <ItemData ItemOID="DS.DSTERM" Value="FINAL LAB VISIT"/>
         <ItemData ItemOID="DS.DSDECOD" Value="FINAL LAB VISIT"/>
         <ItemData ItemOID="DS.DSCAT" Value="OTHER EVENT"/>
         <ItemData ItemOID="DS.VISITNUM" Value="9"/>
         <ItemData ItemOID="DS.VISIT" Value="WEEK 12"/>
         <ItemData ItemOID="DS.DSDTC" Value="2013-11-17T12:20"/>
         <ItemData ItemOID="DS.DSSTDTC" Value="2013-11-17"/>
         <ItemData ItemOID="DS.DSSTDY" Value="115"/>
      </ItemGroupData>
      <ItemGroupData data:ItemGroupDataSeq="107" ItemGroupOID="DS">
         <ItemData ItemOID="DS.STUDYID" Value="CDISCPILOT01"/>
         <ItemData ItemOID="DS.DOMAIN" Value="DS"/>
         <ItemData ItemOID="DS.USUBJID" Value="01-703-1042"/>
         <ItemData ItemOID="DS.DSSEQ" Value="1"/>
         <ItemData ItemOID="DS.DSTERM" Value="PROTOCOL COMPLETED"/>
         <ItemData ItemOID="DS.DSDECOD" Value="COMPLETED"/>
         <ItemData ItemOID="DS.DSCAT" Value="DISPOSITION EVENT"/>
         <ItemData ItemOID="DS.VISITNUM" Value="13"/>
         <ItemData ItemOID="DS.VISIT" Value="WEEK 26"/>
         <ItemData ItemOID="DS.DSDTC" Value="2013-08-31"/>
         <ItemData ItemOID="DS.DSSTDTC" Value="2013-08-31"/>
         <ItemData ItemOID="DS.DSSTDY" Value="183"/>
      </ItemGroupData>
      <ItemGroupData data:ItemGroupDataSeq="108" ItemGroupOID="DS">
         <ItemData ItemOID="DS.STUDYID" Value="CDISCPILOT01"/>
         <ItemData ItemOID="DS.DOMAIN" Value="DS"/>
         <ItemData ItemOID="DS.USUBJID" Value="01-703-1042"/>
         <ItemData ItemOID="DS.DSSEQ" Value="2"/>
         <ItemData ItemOID="DS.DSTERM" Value="FINAL LAB VISIT"/>
         <ItemData ItemOID="DS.DSDECOD" Value="FINAL LAB VISIT"/>
         <ItemData ItemOID="DS.DSCAT" Value="OTHER EVENT"/>
         <ItemData ItemOID="DS.VISITNUM" Value="13"/>
         <ItemData ItemOID="DS.VISIT" Value="WEEK 26"/>
         <ItemData ItemOID="DS.DSDTC" Value="2013-08-31T11:00"/>
         <ItemData ItemOID="DS.DSSTDTC" Value="2013-08-31"/>
         <ItemData ItemOID="DS.DSSTDY" Value="183"/>
      </ItemGroupData>
      <ItemGroupData data:ItemGroupDataSeq="109" ItemGroupOID="DS">
         <ItemData ItemOID="DS.STUDYID" Value="CDISCPILOT01"/>
         <ItemData ItemOID="DS.DOMAIN" Value="DS"/>
         <ItemData ItemOID="DS.USUBJID" Value="01-703-1076"/>
         <ItemData ItemOID="DS.DSSEQ" Value="1"/>
         <ItemData ItemOID="DS.DSSPID" Value="8"/>
         <ItemData ItemOID="DS.DSTERM" Value="ADVERSE EVENT"/>
         <ItemData ItemOID="DS.DSDECOD" Value="ADVERSE EVENT"/>
         <ItemData ItemOID="DS.DSCAT" Value="DISPOSITION EVENT"/>
         <ItemData ItemOID="DS.VISITNUM" Value="9"/>
         <ItemData ItemOID="DS.VISIT" Value="WEEK 12"/>
         <ItemData ItemOID="DS.DSDTC" Value="2013-12-24"/>
         <ItemData ItemOID="DS.DSSTDTC" Value="2013-12-24"/>
         <ItemData ItemOID="DS.DSSTDY" Value="61"/>
      </ItemGroupData>
      <ItemGroupData data:ItemGroupDataSeq="110" ItemGroupOID="DS">
         <ItemData ItemOID="DS.STUDYID" Value="CDISCPILOT01"/>
         <ItemData ItemOID="DS.DOMAIN" Value="DS"/>
         <ItemData ItemOID="DS.USUBJID" Value="01-703-1076"/>
         <ItemData ItemOID="DS.DSSEQ" Value="2"/>
         <ItemData ItemOID="DS.DSTERM" Value="FINAL LAB VISIT"/>
         <ItemData ItemOID="DS.DSDECOD" Value="FINAL LAB VISIT"/>
         <ItemData ItemOID="DS.DSCAT" Value="OTHER EVENT"/>
         <ItemData ItemOID="DS.VISITNUM" Value="9"/>
         <ItemData ItemOID="DS.VISIT" Value="WEEK 12"/>
         <ItemData ItemOID="DS.DSDTC" Value="2013-12-24T13:05"/>
         <ItemData ItemOID="DS.DSSTDTC" Value="2013-12-24"/>
         <ItemData ItemOID="DS.DSSTDY" Value="61"/>
      </ItemGroupData>
      <ItemGroupData data:ItemGroupDataSeq="111" ItemGroupOID="DS">
         <ItemData ItemOID="DS.STUDYID" Value="CDISCPILOT01"/>
         <ItemData ItemOID="DS.DOMAIN" Value="DS"/>
         <ItemData ItemOID="DS.USUBJID" Value="01-703-1086"/>
         <ItemData ItemOID="DS.DSSEQ" Value="1"/>
         <ItemData ItemOID="DS.DSSPID" Value="1"/>
         <ItemData ItemOID="DS.DSTERM" Value="ADVERSE EVENT"/>
         <ItemData ItemOID="DS.DSDECOD" Value="ADVERSE EVENT"/>
         <ItemData ItemOID="DS.DSCAT" Value="DISPOSITION EVENT"/>
         <ItemData ItemOID="DS.VISITNUM" Value="10"/>
         <ItemData ItemOID="DS.VISIT" Value="WEEK 16"/>
         <ItemData ItemOID="DS.DSDTC" Value="2012-12-24"/>
         <ItemData ItemOID="DS.DSSTDTC" Value="2012-12-24"/>
         <ItemData ItemOID="DS.DSSTDY" Value="114"/>
      </ItemGroupData>
      <ItemGroupData data:ItemGroupDataSeq="112" ItemGroupOID="DS">
         <ItemData ItemOID="DS.STUDYID" Value="CDISCPILOT01"/>
         <ItemData ItemOID="DS.DOMAIN" Value="DS"/>
         <ItemData ItemOID="DS.USUBJID" Value="01-703-1086"/>
         <ItemData ItemOID="DS.DSSEQ" Value="2"/>
         <ItemData ItemOID="DS.DSTERM" Value="FINAL LAB VISIT"/>
         <ItemData ItemOID="DS.DSDECOD" Value="FINAL LAB VISIT"/>
         <ItemData ItemOID="DS.DSCAT" Value="OTHER EVENT"/>
         <ItemData ItemOID="DS.VISITNUM" Value="10"/>
         <ItemData ItemOID="DS.VISIT" Value="WEEK 16"/>
         <ItemData ItemOID="DS.DSDTC" Value="2012-12-24T09:30"/>
         <ItemData ItemOID="DS.DSSTDTC" Value="2012-12-24"/>
         <ItemData ItemOID="DS.DSSTDY" Value="114"/>
      </ItemGroupData>
      <ItemGroupData data:ItemGroupDataSeq="113" ItemGroupOID="DS">
         <ItemData ItemOID="DS.STUDYID" Value="CDISCPILOT01"/>
         <ItemData ItemOID="DS.DOMAIN" Value="DS"/>
         <ItemData ItemOID="DS.USUBJID" Value="01-703-1086"/>
         <ItemData ItemOID="DS.DSSEQ" Value="3"/>
         <ItemData ItemOID="DS.DSTERM" Value="FINAL RETRIEVAL VISIT"/>
         <ItemData ItemOID="DS.DSDECOD" Value="FINAL RETRIEVAL VISIT"/>
         <ItemData ItemOID="DS.DSCAT" Value="OTHER EVENT"/>
         <ItemData ItemOID="DS.VISITNUM" Value="201"/>
         <ItemData ItemOID="DS.VISIT" Value="RETRIEVAL"/>
         <ItemData ItemOID="DS.DSDTC" Value="2013-03-26"/>
         <ItemData ItemOID="DS.DSSTDTC" Value="2013-03-26"/>
         <ItemData ItemOID="DS.DSSTDY" Value="206"/>
      </ItemGroupData>
      <ItemGroupData data:ItemGroupDataSeq="114" ItemGroupOID="DS">
         <ItemData ItemOID="DS.STUDYID" Value="CDISCPILOT01"/>
         <ItemData ItemOID="DS.DOMAIN" Value="DS"/>
         <ItemData ItemOID="DS.USUBJID" Value="01-703-1096"/>
         <ItemData ItemOID="DS.DSSEQ" Value="1"/>
         <ItemData ItemOID="DS.DSTERM" Value="UNABLE TO CONTACT PATIENT (LOST TO FOLLOW-UP)"/>
         <ItemData ItemOID="DS.DSDECOD" Value="LOST TO FOLLOW-UP"/>
         <ItemData ItemOID="DS.DSCAT" Value="DISPOSITION EVENT"/>
         <ItemData ItemOID="DS.VISITNUM" Value="7"/>
         <ItemData ItemOID="DS.VISIT" Value="WEEK 6"/>
         <ItemData ItemOID="DS.DSDTC" Value="2013-03-29"/>
         <ItemData ItemOID="DS.DSSTDTC" Value="2013-03-29"/>
         <ItemData ItemOID="DS.DSSTDY" Value="64"/>
      </ItemGroupData>
      <ItemGroupData data:ItemGroupDataSeq="115" ItemGroupOID="DS">
         <ItemData ItemOID="DS.STUDYID" Value="CDISCPILOT01"/>
         <ItemData ItemOID="DS.DOMAIN" Value="DS"/>
         <ItemData ItemOID="DS.USUBJID" Value="01-703-1096"/>
         <ItemData ItemOID="DS.DSSEQ" Value="2"/>
         <ItemData ItemOID="DS.DSTERM" Value="FINAL LAB VISIT"/>
         <ItemData ItemOID="DS.DSDECOD" Value="FINAL LAB VISIT"/>
         <ItemData ItemOID="DS.DSCAT" Value="OTHER EVENT"/>
         <ItemData ItemOID="DS.VISITNUM" Value="5"/>
         <ItemData ItemOID="DS.VISIT" Value="WEEK 4"/>
         <ItemData ItemOID="DS.DSDTC" Value="2013-02-23T17:10"/>
         <ItemData ItemOID="DS.DSSTDTC" Value="2013-02-23"/>
         <ItemData ItemOID="DS.DSSTDY" Value="30"/>
      </ItemGroupData>
      <ItemGroupData data:ItemGroupDataSeq="116" ItemGroupOID="DS">
         <ItemData ItemOID="DS.STUDYID" Value="CDISCPILOT01"/>
         <ItemData ItemOID="DS.DOMAIN" Value="DS"/>
         <ItemData ItemOID="DS.USUBJID" Value="01-703-1100"/>
         <ItemData ItemOID="DS.DSSEQ" Value="1"/>
         <ItemData ItemOID="DS.DSTERM" Value="PROTOCOL COMPLETED"/>
         <ItemData ItemOID="DS.DSDECOD" Value="COMPLETED"/>
         <ItemData ItemOID="DS.DSCAT" Value="DISPOSITION EVENT"/>
         <ItemData ItemOID="DS.VISITNUM" Value="13"/>
         <ItemData ItemOID="DS.VISIT" Value="WEEK 26"/>
         <ItemData ItemOID="DS.DSDTC" Value="2013-09-14"/>
         <ItemData ItemOID="DS.DSSTDTC" Value="2013-09-14"/>
         <ItemData ItemOID="DS.DSSTDY" Value="186"/>
      </ItemGroupData>
      <ItemGroupData data:ItemGroupDataSeq="117" ItemGroupOID="DS">
         <ItemData ItemOID="DS.STUDYID" Value="CDISCPILOT01"/>
         <ItemData ItemOID="DS.DOMAIN" Value="DS"/>
         <ItemData ItemOID="DS.USUBJID" Value="01-703-1100"/>
         <ItemData ItemOID="DS.DSSEQ" Value="2"/>
         <ItemData ItemOID="DS.DSTERM" Value="FINAL LAB VISIT"/>
         <ItemData ItemOID="DS.DSDECOD" Value="FINAL LAB VISIT"/>
         <ItemData ItemOID="DS.DSCAT" Value="OTHER EVENT"/>
         <ItemData ItemOID="DS.VISITNUM" Value="13"/>
         <ItemData ItemOID="DS.VISIT" Value="WEEK 26"/>
         <ItemData ItemOID="DS.DSDTC" Value="2013-09-14T15:00"/>
         <ItemData ItemOID="DS.DSSTDTC" Value="2013-09-14"/>
         <ItemData ItemOID="DS.DSSTDY" Value="186"/>
      </ItemGroupData>
      <ItemGroupData data:ItemGroupDataSeq="118" ItemGroupOID="DS">
         <ItemData ItemOID="DS.STUDYID" Value="CDISCPILOT01"/>
         <ItemData ItemOID="DS.DOMAIN" Value="DS"/>
         <ItemData ItemOID="DS.USUBJID" Value="01-703-1119"/>
         <ItemData ItemOID="DS.DSSEQ" Value="1"/>
         <ItemData ItemOID="DS.DSSPID" Value="10"/>
         <ItemData ItemOID="DS.DSTERM" Value="ADVERSE EVENT"/>
         <ItemData ItemOID="DS.DSDECOD" Value="ADVERSE EVENT"/>
         <ItemData ItemOID="DS.DSCAT" Value="DISPOSITION EVENT"/>
         <ItemData ItemOID="DS.VISITNUM" Value="10"/>
         <ItemData ItemOID="DS.VISIT" Value="WEEK 16"/>
         <ItemData ItemOID="DS.DSDTC" Value="2013-06-13"/>
         <ItemData ItemOID="DS.DSSTDTC" Value="2013-06-13"/>
         <ItemData ItemOID="DS.DSSTDY" Value="114"/>
      </ItemGroupData>
      <ItemGroupData data:ItemGroupDataSeq="119" ItemGroupOID="DS">
         <ItemData ItemOID="DS.STUDYID" Value="CDISCPILOT01"/>
         <ItemData ItemOID="DS.DOMAIN" Value="DS"/>
         <ItemData ItemOID="DS.USUBJID" Value="01-703-1119"/>
         <ItemData ItemOID="DS.DSSEQ" Value="2"/>
         <ItemData ItemOID="DS.DSTERM" Value="FINAL LAB VISIT"/>
         <ItemData ItemOID="DS.DSDECOD" Value="FINAL LAB VISIT"/>
         <ItemData ItemOID="DS.DSCAT" Value="OTHER EVENT"/>
         <ItemData ItemOID="DS.VISITNUM" Value="10"/>
         <ItemData ItemOID="DS.VISIT" Value="WEEK 16"/>
         <ItemData ItemOID="DS.DSDTC" Value="2013-06-13T12:15"/>
         <ItemData ItemOID="DS.DSSTDTC" Value="2013-06-13"/>
         <ItemData ItemOID="DS.DSSTDY" Value="114"/>
      </ItemGroupData>
      <ItemGroupData data:ItemGroupDataSeq="120" ItemGroupOID="DS">
         <ItemData ItemOID="DS.STUDYID" Value="CDISCPILOT01"/>
         <ItemData ItemOID="DS.DOMAIN" Value="DS"/>
         <ItemData ItemOID="DS.USUBJID" Value="01-703-1119"/>
         <ItemData ItemOID="DS.DSSEQ" Value="3"/>
         <ItemData ItemOID="DS.DSTERM" Value="FINAL RETRIEVAL VISIT"/>
         <ItemData ItemOID="DS.DSDECOD" Value="FINAL RETRIEVAL VISIT"/>
         <ItemData ItemOID="DS.DSCAT" Value="OTHER EVENT"/>
         <ItemData ItemOID="DS.VISITNUM" Value="201"/>
         <ItemData ItemOID="DS.VISIT" Value="RETRIEVAL"/>
         <ItemData ItemOID="DS.DSDTC" Value="2013-08-24"/>
         <ItemData ItemOID="DS.DSSTDTC" Value="2013-08-24"/>
         <ItemData ItemOID="DS.DSSTDY" Value="186"/>
      </ItemGroupData>
      <ItemGroupData data:ItemGroupDataSeq="121" ItemGroupOID="DS">
         <ItemData ItemOID="DS.STUDYID" Value="CDISCPILOT01"/>
         <ItemData ItemOID="DS.DOMAIN" Value="DS"/>
         <ItemData ItemOID="DS.USUBJID" Value="01-703-1175"/>
         <ItemData ItemOID="DS.DSSEQ" Value="1"/>
         <ItemData ItemOID="DS.DSTERM" Value="PROTOCOL ENTRY CRITERIA NOT MET"/>
         <ItemData ItemOID="DS.DSDECOD" Value="PROTOCOL VIOLATION"/>
         <ItemData ItemOID="DS.DSCAT" Value="DISPOSITION EVENT"/>
         <ItemData ItemOID="DS.VISITNUM" Value="4"/>
         <ItemData ItemOID="DS.VISIT" Value="WEEK 2"/>
         <ItemData ItemOID="DS.DSDTC" Value="2013-12-31"/>
         <ItemData ItemOID="DS.DSSTDTC" Value="2013-12-31"/>
         <ItemData ItemOID="DS.DSSTDY" Value="12"/>
         <ItemData ItemOID="DS.ENTCRIT" Value="16"/>
      </ItemGroupData>
      <ItemGroupData data:ItemGroupDataSeq="122" ItemGroupOID="DS">
         <ItemData ItemOID="DS.STUDYID" Value="CDISCPILOT01"/>
         <ItemData ItemOID="DS.DOMAIN" Value="DS"/>
         <ItemData ItemOID="DS.USUBJID" Value="01-703-1175"/>
         <ItemData ItemOID="DS.DSSEQ" Value="2"/>
         <ItemData ItemOID="DS.DSTERM" Value="FINAL LAB VISIT"/>
         <ItemData ItemOID="DS.DSDECOD" Value="FINAL LAB VISIT"/>
         <ItemData ItemOID="DS.DSCAT" Value="OTHER EVENT"/>
         <ItemData ItemOID="DS.VISITNUM" Value="4"/>
         <ItemData ItemOID="DS.VISIT" Value="WEEK 2"/>
         <ItemData ItemOID="DS.DSDTC" Value="2013-12-31T13:15"/>
         <ItemData ItemOID="DS.DSSTDTC" Value="2013-12-31"/>
         <ItemData ItemOID="DS.DSSTDY" Value="12"/>
      </ItemGroupData>
      <ItemGroupData data:ItemGroupDataSeq="123" ItemGroupOID="DS">
         <ItemData ItemOID="DS.STUDYID" Value="CDISCPILOT01"/>
         <ItemData ItemOID="DS.DOMAIN" Value="DS"/>
         <ItemData ItemOID="DS.USUBJID" Value="01-703-1182"/>
         <ItemData ItemOID="DS.DSSEQ" Value="1"/>
         <ItemData ItemOID="DS.DSSPID" Value="9"/>
         <ItemData ItemOID="DS.DSTERM" Value="ADVERSE EVENT"/>
         <ItemData ItemOID="DS.DSDECOD" Value="ADVERSE EVENT"/>
         <ItemData ItemOID="DS.DSCAT" Value="DISPOSITION EVENT"/>
         <ItemData ItemOID="DS.VISITNUM" Value="8"/>
         <ItemData ItemOID="DS.VISIT" Value="WEEK 8"/>
         <ItemData ItemOID="DS.DSDTC" Value="2013-12-12"/>
         <ItemData ItemOID="DS.DSSTDTC" Value="2013-12-12"/>
         <ItemData ItemOID="DS.DSSTDY" Value="57"/>
      </ItemGroupData>
      <ItemGroupData data:ItemGroupDataSeq="124" ItemGroupOID="DS">
         <ItemData ItemOID="DS.STUDYID" Value="CDISCPILOT01"/>
         <ItemData ItemOID="DS.DOMAIN" Value="DS"/>
         <ItemData ItemOID="DS.USUBJID" Value="01-703-1182"/>
         <ItemData ItemOID="DS.DSSEQ" Value="2"/>
         <ItemData ItemOID="DS.DSTERM" Value="FINAL LAB VISIT"/>
         <ItemData ItemOID="DS.DSDECOD" Value="FINAL LAB VISIT"/>
         <ItemData ItemOID="DS.DSCAT" Value="OTHER EVENT"/>
         <ItemData ItemOID="DS.VISITNUM" Value="8"/>
         <ItemData ItemOID="DS.VISIT" Value="WEEK 8"/>
         <ItemData ItemOID="DS.DSDTC" Value="2013-12-12T13:10"/>
         <ItemData ItemOID="DS.DSSTDTC" Value="2013-12-12"/>
         <ItemData ItemOID="DS.DSSTDY" Value="57"/>
      </ItemGroupData>
      <ItemGroupData data:ItemGroupDataSeq="125" ItemGroupOID="DS">
         <ItemData ItemOID="DS.STUDYID" Value="CDISCPILOT01"/>
         <ItemData ItemOID="DS.DOMAIN" Value="DS"/>
         <ItemData ItemOID="DS.USUBJID" Value="01-703-1197"/>
         <ItemData ItemOID="DS.DSSEQ" Value="1"/>
         <ItemData ItemOID="DS.DSTERM" Value="CAREGIVER DECISION: SEE COMMENT PAGE"/>
         <ItemData ItemOID="DS.DSDECOD" Value="WITHDRAWAL BY SUBJECT"/>
         <ItemData ItemOID="DS.DSCAT" Value="DISPOSITION EVENT"/>
         <ItemData ItemOID="DS.VISITNUM" Value="4"/>
         <ItemData ItemOID="DS.VISIT" Value="WEEK 2"/>
         <ItemData ItemOID="DS.DSDTC" Value="2013-07-22"/>
         <ItemData ItemOID="DS.DSSTDTC" Value="2013-07-22"/>
         <ItemData ItemOID="DS.DSSTDY" Value="37"/>
      </ItemGroupData>
      <ItemGroupData data:ItemGroupDataSeq="126" ItemGroupOID="DS">
         <ItemData ItemOID="DS.STUDYID" Value="CDISCPILOT01"/>
         <ItemData ItemOID="DS.DOMAIN" Value="DS"/>
         <ItemData ItemOID="DS.USUBJID" Value="01-703-1197"/>
         <ItemData ItemOID="DS.DSSEQ" Value="2"/>
         <ItemData ItemOID="DS.DSTERM" Value="FINAL LAB VISIT"/>
         <ItemData ItemOID="DS.DSDECOD" Value="FINAL LAB VISIT"/>
         <ItemData ItemOID="DS.DSCAT" Value="OTHER EVENT"/>
         <ItemData ItemOID="DS.VISITNUM" Value="1.1"/>
         <ItemData ItemOID="DS.VISIT" Value="UNSCHEDULED 1.1"/>
         <ItemData ItemOID="DS.DSDTC" Value="2013-06-01T10:00"/>
         <ItemData ItemOID="DS.DSSTDTC" Value="2013-06-01"/>
         <ItemData ItemOID="DS.DSSTDY" Value="-15"/>
      </ItemGroupData>
      <ItemGroupData data:ItemGroupDataSeq="127" ItemGroupOID="DS">
         <ItemData ItemOID="DS.STUDYID" Value="CDISCPILOT01"/>
         <ItemData ItemOID="DS.DOMAIN" Value="DS"/>
         <ItemData ItemOID="DS.USUBJID" Value="01-703-1210"/>
         <ItemData ItemOID="DS.DSSEQ" Value="1"/>
         <ItemData ItemOID="DS.DSTERM" Value="PROTOCOL COMPLETED"/>
         <ItemData ItemOID="DS.DSDECOD" Value="COMPLETED"/>
         <ItemData ItemOID="DS.DSCAT" Value="DISPOSITION EVENT"/>
         <ItemData ItemOID="DS.VISITNUM" Value="13"/>
         <ItemData ItemOID="DS.VISIT" Value="WEEK 26"/>
         <ItemData ItemOID="DS.DSDTC" Value="2013-09-06"/>
         <ItemData ItemOID="DS.DSSTDTC" Value="2013-09-06"/>
         <ItemData ItemOID="DS.DSSTDY" Value="175"/>
      </ItemGroupData>
      <ItemGroupData data:ItemGroupDataSeq="128" ItemGroupOID="DS">
         <ItemData ItemOID="DS.STUDYID" Value="CDISCPILOT01"/>
         <ItemData ItemOID="DS.DOMAIN" Value="DS"/>
         <ItemData ItemOID="DS.USUBJID" Value="01-703-1210"/>
         <ItemData ItemOID="DS.DSSEQ" Value="2"/>
         <ItemData ItemOID="DS.DSTERM" Value="FINAL LAB VISIT"/>
         <ItemData ItemOID="DS.DSDECOD" Value="FINAL LAB VISIT"/>
         <ItemData ItemOID="DS.DSCAT" Value="OTHER EVENT"/>
         <ItemData ItemOID="DS.VISITNUM" Value="13"/>
         <ItemData ItemOID="DS.VISIT" Value="WEEK 26"/>
         <ItemData ItemOID="DS.DSDTC" Value="2013-09-06T13:30"/>
         <ItemData ItemOID="DS.DSSTDTC" Value="2013-09-06"/>
         <ItemData ItemOID="DS.DSSTDY" Value="175"/>
      </ItemGroupData>
      <ItemGroupData data:ItemGroupDataSeq="129" ItemGroupOID="DS">
         <ItemData ItemOID="DS.STUDYID" Value="CDISCPILOT01"/>
         <ItemData ItemOID="DS.DOMAIN" Value="DS"/>
         <ItemData ItemOID="DS.USUBJID" Value="01-703-1258"/>
         <ItemData ItemOID="DS.DSSEQ" Value="1"/>
         <ItemData ItemOID="DS.DSSPID" Value="13"/>
         <ItemData ItemOID="DS.DSTERM" Value="ADVERSE EVENT"/>
         <ItemData ItemOID="DS.DSDECOD" Value="ADVERSE EVENT"/>
         <ItemData ItemOID="DS.DSCAT" Value="DISPOSITION EVENT"/>
         <ItemData ItemOID="DS.VISITNUM" Value="13"/>
         <ItemData ItemOID="DS.VISIT" Value="WEEK 26"/>
         <ItemData ItemOID="DS.DSDTC" Value="2013-01-21"/>
         <ItemData ItemOID="DS.DSSTDTC" Value="2013-01-21"/>
         <ItemData ItemOID="DS.DSSTDY" Value="186"/>
      </ItemGroupData>
      <ItemGroupData data:ItemGroupDataSeq="130" ItemGroupOID="DS">
         <ItemData ItemOID="DS.STUDYID" Value="CDISCPILOT01"/>
         <ItemData ItemOID="DS.DOMAIN" Value="DS"/>
         <ItemData ItemOID="DS.USUBJID" Value="01-703-1258"/>
         <ItemData ItemOID="DS.DSSEQ" Value="2"/>
         <ItemData ItemOID="DS.DSTERM" Value="FINAL LAB VISIT"/>
         <ItemData ItemOID="DS.DSDECOD" Value="FINAL LAB VISIT"/>
         <ItemData ItemOID="DS.DSCAT" Value="OTHER EVENT"/>
         <ItemData ItemOID="DS.VISITNUM" Value="12"/>
         <ItemData ItemOID="DS.VISIT" Value="WEEK 24"/>
         <ItemData ItemOID="DS.DSDTC" Value="2012-12-31T11:30"/>
         <ItemData ItemOID="DS.DSSTDTC" Value="2012-12-31"/>
         <ItemData ItemOID="DS.DSSTDY" Value="165"/>
      </ItemGroupData>
      <ItemGroupData data:ItemGroupDataSeq="131" ItemGroupOID="DS">
         <ItemData ItemOID="DS.STUDYID" Value="CDISCPILOT01"/>
         <ItemData ItemOID="DS.DOMAIN" Value="DS"/>
         <ItemData ItemOID="DS.USUBJID" Value="01-703-1279"/>
         <ItemData ItemOID="DS.DSSEQ" Value="1"/>
         <ItemData ItemOID="DS.DSTERM" Value="CAREGIVER BECAME ILL"/>
         <ItemData ItemOID="DS.DSDECOD" Value="WITHDRAWAL BY SUBJECT"/>
         <ItemData ItemOID="DS.DSCAT" Value="DISPOSITION EVENT"/>
         <ItemData ItemOID="DS.VISITNUM" Value="4"/>
         <ItemData ItemOID="DS.VISIT" Value="WEEK 2"/>
         <ItemData ItemOID="DS.DSDTC" Value="2013-06-22"/>
         <ItemData ItemOID="DS.DSSTDTC" Value="2013-06-22"/>
         <ItemData ItemOID="DS.DSSTDY" Value="41"/>
      </ItemGroupData>
      <ItemGroupData data:ItemGroupDataSeq="132" ItemGroupOID="DS">
         <ItemData ItemOID="DS.STUDYID" Value="CDISCPILOT01"/>
         <ItemData ItemOID="DS.DOMAIN" Value="DS"/>
         <ItemData ItemOID="DS.USUBJID" Value="01-703-1279"/>
         <ItemData ItemOID="DS.DSSEQ" Value="2"/>
         <ItemData ItemOID="DS.DSTERM" Value="FINAL LAB VISIT"/>
         <ItemData ItemOID="DS.DSDECOD" Value="FINAL LAB VISIT"/>
         <ItemData ItemOID="DS.DSCAT" Value="OTHER EVENT"/>
         <ItemData ItemOID="DS.VISITNUM" Value="1"/>
         <ItemData ItemOID="DS.VISIT" Value="SCREENING 1"/>
         <ItemData ItemOID="DS.DSDTC" Value="2013-04-27T11:00"/>
         <ItemData ItemOID="DS.DSSTDTC" Value="2013-04-27"/>
         <ItemData ItemOID="DS.DSSTDY" Value="-16"/>
      </ItemGroupData>
      <ItemGroupData data:ItemGroupDataSeq="133" ItemGroupOID="DS">
         <ItemData ItemOID="DS.STUDYID" Value="CDISCPILOT01"/>
         <ItemData ItemOID="DS.DOMAIN" Value="DS"/>
         <ItemData ItemOID="DS.USUBJID" Value="01-703-1295"/>
         <ItemData ItemOID="DS.DSSEQ" Value="1"/>
         <ItemData ItemOID="DS.DSTERM" Value="FAMILY WISHES TO DISCONTINUE"/>
         <ItemData ItemOID="DS.DSDECOD" Value="WITHDRAWAL BY SUBJECT"/>
         <ItemData ItemOID="DS.DSCAT" Value="DISPOSITION EVENT"/>
         <ItemData ItemOID="DS.VISITNUM" Value="11"/>
         <ItemData ItemOID="DS.VISIT" Value="WEEK 20"/>
         <ItemData ItemOID="DS.DSDTC" Value="2014-05-19"/>
         <ItemData ItemOID="DS.DSSTDTC" Value="2014-05-19"/>
         <ItemData ItemOID="DS.DSSTDY" Value="180"/>
      </ItemGroupData>
      <ItemGroupData data:ItemGroupDataSeq="134" ItemGroupOID="DS">
         <ItemData ItemOID="DS.STUDYID" Value="CDISCPILOT01"/>
         <ItemData ItemOID="DS.DOMAIN" Value="DS"/>
         <ItemData ItemOID="DS.USUBJID" Value="01-703-1295"/>
         <ItemData ItemOID="DS.DSSEQ" Value="2"/>
         <ItemData ItemOID="DS.DSTERM" Value="FINAL LAB VISIT"/>
         <ItemData ItemOID="DS.DSDECOD" Value="FINAL LAB VISIT"/>
         <ItemData ItemOID="DS.DSCAT" Value="OTHER EVENT"/>
         <ItemData ItemOID="DS.VISITNUM" Value="11"/>
         <ItemData ItemOID="DS.VISIT" Value="WEEK 20"/>
         <ItemData ItemOID="DS.DSDTC" Value="2014-05-19T14:45"/>
         <ItemData ItemOID="DS.DSSTDTC" Value="2014-05-19"/>
         <ItemData ItemOID="DS.DSSTDY" Value="180"/>
      </ItemGroupData>
      <ItemGroupData data:ItemGroupDataSeq="135" ItemGroupOID="DS">
         <ItemData ItemOID="DS.STUDYID" Value="CDISCPILOT01"/>
         <ItemData ItemOID="DS.DOMAIN" Value="DS"/>
         <ItemData ItemOID="DS.USUBJID" Value="01-703-1299"/>
         <ItemData ItemOID="DS.DSSEQ" Value="1"/>
         <ItemData ItemOID="DS.DSTERM" Value="PROTOCOL COMPLETED"/>
         <ItemData ItemOID="DS.DSDECOD" Value="COMPLETED"/>
         <ItemData ItemOID="DS.DSCAT" Value="DISPOSITION EVENT"/>
         <ItemData ItemOID="DS.VISITNUM" Value="13"/>
         <ItemData ItemOID="DS.VISIT" Value="WEEK 26"/>
         <ItemData ItemOID="DS.DSDTC" Value="2013-03-13"/>
         <ItemData ItemOID="DS.DSSTDTC" Value="2013-03-13"/>
         <ItemData ItemOID="DS.DSSTDY" Value="183"/>
      </ItemGroupData>
      <ItemGroupData data:ItemGroupDataSeq="136" ItemGroupOID="DS">
         <ItemData ItemOID="DS.STUDYID" Value="CDISCPILOT01"/>
         <ItemData ItemOID="DS.DOMAIN" Value="DS"/>
         <ItemData ItemOID="DS.USUBJID" Value="01-703-1299"/>
         <ItemData ItemOID="DS.DSSEQ" Value="2"/>
         <ItemData ItemOID="DS.DSTERM" Value="FINAL LAB VISIT"/>
         <ItemData ItemOID="DS.DSDECOD" Value="FINAL LAB VISIT"/>
         <ItemData ItemOID="DS.DSCAT" Value="OTHER EVENT"/>
         <ItemData ItemOID="DS.VISITNUM" Value="13"/>
         <ItemData ItemOID="DS.VISIT" Value="WEEK 26"/>
         <ItemData ItemOID="DS.DSDTC" Value="2013-03-13T11:40"/>
         <ItemData ItemOID="DS.DSSTDTC" Value="2013-03-13"/>
         <ItemData ItemOID="DS.DSSTDY" Value="183"/>
      </ItemGroupData>
      <ItemGroupData data:ItemGroupDataSeq="137" ItemGroupOID="DS">
         <ItemData ItemOID="DS.STUDYID" Value="CDISCPILOT01"/>
         <ItemData ItemOID="DS.DOMAIN" Value="DS"/>
         <ItemData ItemOID="DS.USUBJID" Value="01-703-1335"/>
         <ItemData ItemOID="DS.DSSEQ" Value="1"/>
         <ItemData ItemOID="DS.DSTERM" Value="PROTOCOL VIOLATION"/>
         <ItemData ItemOID="DS.DSDECOD" Value="PROTOCOL VIOLATION"/>
         <ItemData ItemOID="DS.DSCAT" Value="DISPOSITION EVENT"/>
         <ItemData ItemOID="DS.VISITNUM" Value="7"/>
         <ItemData ItemOID="DS.VISIT" Value="WEEK 6"/>
         <ItemData ItemOID="DS.DSDTC" Value="2014-05-24"/>
         <ItemData ItemOID="DS.DSSTDTC" Value="2014-05-24"/>
         <ItemData ItemOID="DS.DSSTDY" Value="69"/>
      </ItemGroupData>
      <ItemGroupData data:ItemGroupDataSeq="138" ItemGroupOID="DS">
         <ItemData ItemOID="DS.STUDYID" Value="CDISCPILOT01"/>
         <ItemData ItemOID="DS.DOMAIN" Value="DS"/>
         <ItemData ItemOID="DS.USUBJID" Value="01-703-1335"/>
         <ItemData ItemOID="DS.DSSEQ" Value="2"/>
         <ItemData ItemOID="DS.DSTERM" Value="FINAL LAB VISIT"/>
         <ItemData ItemOID="DS.DSDECOD" Value="FINAL LAB VISIT"/>
         <ItemData ItemOID="DS.DSCAT" Value="OTHER EVENT"/>
         <ItemData ItemOID="DS.VISITNUM" Value="7"/>
         <ItemData ItemOID="DS.VISIT" Value="WEEK 6"/>
         <ItemData ItemOID="DS.DSDTC" Value="2014-05-24T12:15"/>
         <ItemData ItemOID="DS.DSSTDTC" Value="2014-05-24"/>
         <ItemData ItemOID="DS.DSSTDY" Value="69"/>
      </ItemGroupData>
      <ItemGroupData data:ItemGroupDataSeq="139" ItemGroupOID="DS">
         <ItemData ItemOID="DS.STUDYID" Value="CDISCPILOT01"/>
         <ItemData ItemOID="DS.DOMAIN" Value="DS"/>
         <ItemData ItemOID="DS.USUBJID" Value="01-703-1379"/>
         <ItemData ItemOID="DS.DSSEQ" Value="1"/>
         <ItemData ItemOID="DS.DSTERM" Value="PROTOCOL COMPLETED"/>
         <ItemData ItemOID="DS.DSDECOD" Value="COMPLETED"/>
         <ItemData ItemOID="DS.DSCAT" Value="DISPOSITION EVENT"/>
         <ItemData ItemOID="DS.VISITNUM" Value="13"/>
         <ItemData ItemOID="DS.VISIT" Value="WEEK 26"/>
         <ItemData ItemOID="DS.DSDTC" Value="2014-03-21"/>
         <ItemData ItemOID="DS.DSSTDTC" Value="2014-03-21"/>
         <ItemData ItemOID="DS.DSSTDY" Value="181"/>
      </ItemGroupData>
      <ItemGroupData data:ItemGroupDataSeq="140" ItemGroupOID="DS">
         <ItemData ItemOID="DS.STUDYID" Value="CDISCPILOT01"/>
         <ItemData ItemOID="DS.DOMAIN" Value="DS"/>
         <ItemData ItemOID="DS.USUBJID" Value="01-703-1379"/>
         <ItemData ItemOID="DS.DSSEQ" Value="2"/>
         <ItemData ItemOID="DS.DSTERM" Value="FINAL LAB VISIT"/>
         <ItemData ItemOID="DS.DSDECOD" Value="FINAL LAB VISIT"/>
         <ItemData ItemOID="DS.DSCAT" Value="OTHER EVENT"/>
         <ItemData ItemOID="DS.VISITNUM" Value="13"/>
         <ItemData ItemOID="DS.VISIT" Value="WEEK 26"/>
         <ItemData ItemOID="DS.DSDTC" Value="2014-03-21T10:55"/>
         <ItemData ItemOID="DS.DSSTDTC" Value="2014-03-21"/>
         <ItemData ItemOID="DS.DSSTDY" Value="181"/>
      </ItemGroupData>
      <ItemGroupData data:ItemGroupDataSeq="141" ItemGroupOID="DS">
         <ItemData ItemOID="DS.STUDYID" Value="CDISCPILOT01"/>
         <ItemData ItemOID="DS.DOMAIN" Value="DS"/>
         <ItemData ItemOID="DS.USUBJID" Value="01-703-1396"/>
         <ItemData ItemOID="DS.DSSEQ" Value="1"/>
         <ItemData ItemOID="DS.DSTERM" Value="SCREEN FAILURE"/>
         <ItemData ItemOID="DS.DSDECOD" Value="SCREEN FAILURE"/>
         <ItemData ItemOID="DS.DSCAT" Value="DISPOSITION EVENT"/>
         <ItemData ItemOID="DS.VISITNUM" Value="1"/>
         <ItemData ItemOID="DS.VISIT" Value="SCREENING 1"/>
         <ItemData ItemOID="DS.DSDTC" Value="2014-02-09"/>
         <ItemData ItemOID="DS.DSSTDTC" Value="2014-02-09"/>
      </ItemGroupData>
      <ItemGroupData data:ItemGroupDataSeq="142" ItemGroupOID="DS">
         <ItemData ItemOID="DS.STUDYID" Value="CDISCPILOT01"/>
         <ItemData ItemOID="DS.DOMAIN" Value="DS"/>
         <ItemData ItemOID="DS.USUBJID" Value="01-703-1403"/>
         <ItemData ItemOID="DS.DSSEQ" Value="1"/>
         <ItemData ItemOID="DS.DSSPID" Value="5"/>
         <ItemData ItemOID="DS.DSTERM" Value="ADVERSE EVENT"/>
         <ItemData ItemOID="DS.DSDECOD" Value="ADVERSE EVENT"/>
         <ItemData ItemOID="DS.DSCAT" Value="DISPOSITION EVENT"/>
         <ItemData ItemOID="DS.VISITNUM" Value="4"/>
         <ItemData ItemOID="DS.VISIT" Value="WEEK 2"/>
         <ItemData ItemOID="DS.DSDTC" Value="2012-12-19"/>
         <ItemData ItemOID="DS.DSSTDTC" Value="2012-12-19"/>
         <ItemData ItemOID="DS.DSSTDY" Value="8"/>
      </ItemGroupData>
      <ItemGroupData data:ItemGroupDataSeq="143" ItemGroupOID="DS">
         <ItemData ItemOID="DS.STUDYID" Value="CDISCPILOT01"/>
         <ItemData ItemOID="DS.DOMAIN" Value="DS"/>
         <ItemData ItemOID="DS.USUBJID" Value="01-703-1403"/>
         <ItemData ItemOID="DS.DSSEQ" Value="2"/>
         <ItemData ItemOID="DS.DSTERM" Value="FINAL LAB VISIT"/>
         <ItemData ItemOID="DS.DSDECOD" Value="FINAL LAB VISIT"/>
         <ItemData ItemOID="DS.DSCAT" Value="OTHER EVENT"/>
         <ItemData ItemOID="DS.VISITNUM" Value="4"/>
         <ItemData ItemOID="DS.VISIT" Value="WEEK 2"/>
         <ItemData ItemOID="DS.DSDTC" Value="2012-12-19T10:15"/>
         <ItemData ItemOID="DS.DSSTDTC" Value="2012-12-19"/>
         <ItemData ItemOID="DS.DSSTDY" Value="8"/>
      </ItemGroupData>
      <ItemGroupData data:ItemGroupDataSeq="144" ItemGroupOID="DS">
         <ItemData ItemOID="DS.STUDYID" Value="CDISCPILOT01"/>
         <ItemData ItemOID="DS.DOMAIN" Value="DS"/>
         <ItemData ItemOID="DS.USUBJID" Value="01-703-1439"/>
         <ItemData ItemOID="DS.DSSEQ" Value="1"/>
         <ItemData ItemOID="DS.DSTERM" Value="PROTOCOL COMPLETED"/>
         <ItemData ItemOID="DS.DSDECOD" Value="COMPLETED"/>
         <ItemData ItemOID="DS.DSCAT" Value="DISPOSITION EVENT"/>
         <ItemData ItemOID="DS.VISITNUM" Value="13"/>
         <ItemData ItemOID="DS.VISIT" Value="WEEK 26"/>
         <ItemData ItemOID="DS.DSDTC" Value="2014-09-11"/>
         <ItemData ItemOID="DS.DSSTDTC" Value="2014-09-11"/>
         <ItemData ItemOID="DS.DSSTDY" Value="184"/>
      </ItemGroupData>
      <ItemGroupData data:ItemGroupDataSeq="145" ItemGroupOID="DS">
         <ItemData ItemOID="DS.STUDYID" Value="CDISCPILOT01"/>
         <ItemData ItemOID="DS.DOMAIN" Value="DS"/>
         <ItemData ItemOID="DS.USUBJID" Value="01-703-1439"/>
         <ItemData ItemOID="DS.DSSEQ" Value="2"/>
         <ItemData ItemOID="DS.DSTERM" Value="FINAL LAB VISIT"/>
         <ItemData ItemOID="DS.DSDECOD" Value="FINAL LAB VISIT"/>
         <ItemData ItemOID="DS.DSCAT" Value="OTHER EVENT"/>
         <ItemData ItemOID="DS.VISITNUM" Value="13"/>
         <ItemData ItemOID="DS.VISIT" Value="WEEK 26"/>
         <ItemData ItemOID="DS.DSDTC" Value="2014-09-11T12:40"/>
         <ItemData ItemOID="DS.DSSTDTC" Value="2014-09-11"/>
         <ItemData ItemOID="DS.DSSTDY" Value="184"/>
      </ItemGroupData>
      <ItemGroupData data:ItemGroupDataSeq="146" ItemGroupOID="DS">
         <ItemData ItemOID="DS.STUDYID" Value="CDISCPILOT01"/>
         <ItemData ItemOID="DS.DOMAIN" Value="DS"/>
         <ItemData ItemOID="DS.USUBJID" Value="01-704-1008"/>
         <ItemData ItemOID="DS.DSSEQ" Value="1"/>
         <ItemData ItemOID="DS.DSSPID" Value="9"/>
         <ItemData ItemOID="DS.DSTERM" Value="ADVERSE EVENT"/>
         <ItemData ItemOID="DS.DSDECOD" Value="ADVERSE EVENT"/>
         <ItemData ItemOID="DS.DSCAT" Value="DISPOSITION EVENT"/>
         <ItemData ItemOID="DS.VISITNUM" Value="7"/>
         <ItemData ItemOID="DS.VISIT" Value="WEEK 6"/>
         <ItemData ItemOID="DS.DSDTC" Value="2013-02-25"/>
         <ItemData ItemOID="DS.DSSTDTC" Value="2013-02-25"/>
         <ItemData ItemOID="DS.DSSTDY" Value="44"/>
      </ItemGroupData>
      <ItemGroupData data:ItemGroupDataSeq="147" ItemGroupOID="DS">
         <ItemData ItemOID="DS.STUDYID" Value="CDISCPILOT01"/>
         <ItemData ItemOID="DS.DOMAIN" Value="DS"/>
         <ItemData ItemOID="DS.USUBJID" Value="01-704-1008"/>
         <ItemData ItemOID="DS.DSSEQ" Value="2"/>
         <ItemData ItemOID="DS.DSTERM" Value="FINAL LAB VISIT"/>
         <ItemData ItemOID="DS.DSDECOD" Value="FINAL LAB VISIT"/>
         <ItemData ItemOID="DS.DSCAT" Value="OTHER EVENT"/>
         <ItemData ItemOID="DS.VISITNUM" Value="7"/>
         <ItemData ItemOID="DS.VISIT" Value="WEEK 6"/>
         <ItemData ItemOID="DS.DSDTC" Value="2013-02-25T11:00"/>
         <ItemData ItemOID="DS.DSSTDTC" Value="2013-02-25"/>
         <ItemData ItemOID="DS.DSSTDY" Value="44"/>
      </ItemGroupData>
      <ItemGroupData data:ItemGroupDataSeq="148" ItemGroupOID="DS">
         <ItemData ItemOID="DS.STUDYID" Value="CDISCPILOT01"/>
         <ItemData ItemOID="DS.DOMAIN" Value="DS"/>
         <ItemData ItemOID="DS.USUBJID" Value="01-704-1009"/>
         <ItemData ItemOID="DS.DSSEQ" Value="1"/>
         <ItemData ItemOID="DS.DSTERM" Value="TOO TIME CONSUMING;PT REFUSED FUTURE HOLTERS"/>
         <ItemData ItemOID="DS.DSDECOD" Value="WITHDRAWAL BY SUBJECT"/>
         <ItemData ItemOID="DS.DSCAT" Value="DISPOSITION EVENT"/>
         <ItemData ItemOID="DS.VISITNUM" Value="5"/>
         <ItemData ItemOID="DS.VISIT" Value="WEEK 4"/>
         <ItemData ItemOID="DS.DSDTC" Value="2013-10-02"/>
         <ItemData ItemOID="DS.DSSTDTC" Value="2013-10-02"/>
         <ItemData ItemOID="DS.DSSTDY" Value="37"/>
      </ItemGroupData>
      <ItemGroupData data:ItemGroupDataSeq="149" ItemGroupOID="DS">
         <ItemData ItemOID="DS.STUDYID" Value="CDISCPILOT01"/>
         <ItemData ItemOID="DS.DOMAIN" Value="DS"/>
         <ItemData ItemOID="DS.USUBJID" Value="01-704-1009"/>
         <ItemData ItemOID="DS.DSSEQ" Value="2"/>
         <ItemData ItemOID="DS.DSTERM" Value="FINAL LAB VISIT"/>
         <ItemData ItemOID="DS.DSDECOD" Value="FINAL LAB VISIT"/>
         <ItemData ItemOID="DS.DSCAT" Value="OTHER EVENT"/>
         <ItemData ItemOID="DS.VISITNUM" Value="4"/>
         <ItemData ItemOID="DS.VISIT" Value="WEEK 2"/>
         <ItemData ItemOID="DS.DSDTC" Value="2013-09-14T15:00"/>
         <ItemData ItemOID="DS.DSSTDTC" Value="2013-09-14"/>
         <ItemData ItemOID="DS.DSSTDY" Value="19"/>
      </ItemGroupData>
      <ItemGroupData data:ItemGroupDataSeq="150" ItemGroupOID="DS">
         <ItemData ItemOID="DS.STUDYID" Value="CDISCPILOT01"/>
         <ItemData ItemOID="DS.DOMAIN" Value="DS"/>
         <ItemData ItemOID="DS.USUBJID" Value="01-704-1010"/>
         <ItemData ItemOID="DS.DSSEQ" Value="1"/>
         <ItemData ItemOID="DS.DSTERM" Value="PATIENT IS MOVING"/>
         <ItemData ItemOID="DS.DSDECOD" Value="WITHDRAWAL BY SUBJECT"/>
         <ItemData ItemOID="DS.DSCAT" Value="DISPOSITION EVENT"/>
         <ItemData ItemOID="DS.VISITNUM" Value="11"/>
         <ItemData ItemOID="DS.VISIT" Value="WEEK 20"/>
         <ItemData ItemOID="DS.DSDTC" Value="2014-07-09"/>
         <ItemData ItemOID="DS.DSSTDTC" Value="2014-07-09"/>
         <ItemData ItemOID="DS.DSSTDY" Value="139"/>
      </ItemGroupData>
      <ItemGroupData data:ItemGroupDataSeq="151" ItemGroupOID="DS">
         <ItemData ItemOID="DS.STUDYID" Value="CDISCPILOT01"/>
         <ItemData ItemOID="DS.DOMAIN" Value="DS"/>
         <ItemData ItemOID="DS.USUBJID" Value="01-704-1010"/>
         <ItemData ItemOID="DS.DSSEQ" Value="2"/>
         <ItemData ItemOID="DS.DSTERM" Value="FINAL LAB VISIT"/>
         <ItemData ItemOID="DS.DSDECOD" Value="FINAL LAB VISIT"/>
         <ItemData ItemOID="DS.DSCAT" Value="OTHER EVENT"/>
         <ItemData ItemOID="DS.VISITNUM" Value="11"/>
         <ItemData ItemOID="DS.VISIT" Value="WEEK 20"/>
         <ItemData ItemOID="DS.DSDTC" Value="2014-07-09T11:00"/>
         <ItemData ItemOID="DS.DSSTDTC" Value="2014-07-09"/>
         <ItemData ItemOID="DS.DSSTDY" Value="139"/>
      </ItemGroupData>
      <ItemGroupData data:ItemGroupDataSeq="152" ItemGroupOID="DS">
         <ItemData ItemOID="DS.STUDYID" Value="CDISCPILOT01"/>
         <ItemData ItemOID="DS.DOMAIN" Value="DS"/>
         <ItemData ItemOID="DS.USUBJID" Value="01-704-1017"/>
         <ItemData ItemOID="DS.DSSEQ" Value="1"/>
         <ItemData ItemOID="DS.DSSPID" Value="14"/>
         <ItemData ItemOID="DS.DSTERM" Value="ADVERSE EVENT"/>
         <ItemData ItemOID="DS.DSDECOD" Value="ADVERSE EVENT"/>
         <ItemData ItemOID="DS.DSCAT" Value="DISPOSITION EVENT"/>
         <ItemData ItemOID="DS.VISITNUM" Value="7"/>
         <ItemData ItemOID="DS.VISIT" Value="WEEK 6"/>
         <ItemData ItemOID="DS.DSDTC" Value="2013-11-24"/>
         <ItemData ItemOID="DS.DSSTDTC" Value="2013-11-24"/>
         <ItemData ItemOID="DS.DSSTDY" Value="50"/>
      </ItemGroupData>
      <ItemGroupData data:ItemGroupDataSeq="153" ItemGroupOID="DS">
         <ItemData ItemOID="DS.STUDYID" Value="CDISCPILOT01"/>
         <ItemData ItemOID="DS.DOMAIN" Value="DS"/>
         <ItemData ItemOID="DS.USUBJID" Value="01-704-1017"/>
         <ItemData ItemOID="DS.DSSEQ" Value="2"/>
         <ItemData ItemOID="DS.DSTERM" Value="FINAL LAB VISIT"/>
         <ItemData ItemOID="DS.DSDECOD" Value="FINAL LAB VISIT"/>
         <ItemData ItemOID="DS.DSCAT" Value="OTHER EVENT"/>
         <ItemData ItemOID="DS.VISITNUM" Value="5"/>
         <ItemData ItemOID="DS.VISIT" Value="WEEK 4"/>
         <ItemData ItemOID="DS.DSDTC" Value="2013-11-01T10:45"/>
         <ItemData ItemOID="DS.DSSTDTC" Value="2013-11-01"/>
         <ItemData ItemOID="DS.DSSTDY" Value="27"/>
      </ItemGroupData>
      <ItemGroupData data:ItemGroupDataSeq="154" ItemGroupOID="DS">
         <ItemData ItemOID="DS.STUDYID" Value="CDISCPILOT01"/>
         <ItemData ItemOID="DS.DOMAIN" Value="DS"/>
         <ItemData ItemOID="DS.USUBJID" Value="01-704-1025"/>
         <ItemData ItemOID="DS.DSSEQ" Value="1"/>
         <ItemData ItemOID="DS.DSSPID" Value="8"/>
         <ItemData ItemOID="DS.DSTERM" Value="ADVERSE EVENT"/>
         <ItemData ItemOID="DS.DSDECOD" Value="ADVERSE EVENT"/>
         <ItemData ItemOID="DS.DSCAT" Value="DISPOSITION EVENT"/>
         <ItemData ItemOID="DS.VISITNUM" Value="6"/>
         <ItemData ItemOID="DS.VISIT" Value="AMBUL ECG REMOVAL"/>
         <ItemData ItemOID="DS.DSDTC" Value="2013-11-29"/>
         <ItemData ItemOID="DS.DSSTDTC" Value="2013-11-29"/>
         <ItemData ItemOID="DS.DSSTDY" Value="64"/>
      </ItemGroupData>
      <ItemGroupData data:ItemGroupDataSeq="155" ItemGroupOID="DS">
         <ItemData ItemOID="DS.STUDYID" Value="CDISCPILOT01"/>
         <ItemData ItemOID="DS.DOMAIN" Value="DS"/>
         <ItemData ItemOID="DS.USUBJID" Value="01-704-1025"/>
         <ItemData ItemOID="DS.DSSEQ" Value="2"/>
         <ItemData ItemOID="DS.DSTERM" Value="FINAL LAB VISIT"/>
         <ItemData ItemOID="DS.DSDECOD" Value="FINAL LAB VISIT"/>
         <ItemData ItemOID="DS.DSCAT" Value="OTHER EVENT"/>
         <ItemData ItemOID="DS.VISITNUM" Value="6"/>
         <ItemData ItemOID="DS.VISIT" Value="AMBUL ECG REMOVAL"/>
         <ItemData ItemOID="DS.DSDTC" Value="2013-11-29T12:00"/>
         <ItemData ItemOID="DS.DSSTDTC" Value="2013-11-29"/>
         <ItemData ItemOID="DS.DSSTDY" Value="64"/>
      </ItemGroupData>
      <ItemGroupData data:ItemGroupDataSeq="156" ItemGroupOID="DS">
         <ItemData ItemOID="DS.STUDYID" Value="CDISCPILOT01"/>
         <ItemData ItemOID="DS.DOMAIN" Value="DS"/>
         <ItemData ItemOID="DS.USUBJID" Value="01-704-1065"/>
         <ItemData ItemOID="DS.DSSEQ" Value="1"/>
         <ItemData ItemOID="DS.DSSPID" Value="14"/>
         <ItemData ItemOID="DS.DSTERM" Value="ADVERSE EVENT"/>
         <ItemData ItemOID="DS.DSDECOD" Value="ADVERSE EVENT"/>
         <ItemData ItemOID="DS.DSCAT" Value="DISPOSITION EVENT"/>
         <ItemData ItemOID="DS.VISITNUM" Value="9"/>
         <ItemData ItemOID="DS.VISIT" Value="WEEK 12"/>
         <ItemData ItemOID="DS.DSDTC" Value="2013-12-24"/>
         <ItemData ItemOID="DS.DSSTDTC" Value="2013-12-24"/>
         <ItemData ItemOID="DS.DSSTDY" Value="62"/>
      </ItemGroupData>
      <ItemGroupData data:ItemGroupDataSeq="157" ItemGroupOID="DS">
         <ItemData ItemOID="DS.STUDYID" Value="CDISCPILOT01"/>
         <ItemData ItemOID="DS.DOMAIN" Value="DS"/>
         <ItemData ItemOID="DS.USUBJID" Value="01-704-1065"/>
         <ItemData ItemOID="DS.DSSEQ" Value="2"/>
         <ItemData ItemOID="DS.DSTERM" Value="FINAL LAB VISIT"/>
         <ItemData ItemOID="DS.DSDECOD" Value="FINAL LAB VISIT"/>
         <ItemData ItemOID="DS.DSCAT" Value="OTHER EVENT"/>
         <ItemData ItemOID="DS.VISITNUM" Value="9"/>
         <ItemData ItemOID="DS.VISIT" Value="WEEK 12"/>
         <ItemData ItemOID="DS.DSDTC" Value="2013-12-24T11:45"/>
         <ItemData ItemOID="DS.DSSTDTC" Value="2013-12-24"/>
         <ItemData ItemOID="DS.DSSTDY" Value="62"/>
      </ItemGroupData>
      <ItemGroupData data:ItemGroupDataSeq="158" ItemGroupOID="DS">
         <ItemData ItemOID="DS.STUDYID" Value="CDISCPILOT01"/>
         <ItemData ItemOID="DS.DOMAIN" Value="DS"/>
         <ItemData ItemOID="DS.USUBJID" Value="01-704-1074"/>
         <ItemData ItemOID="DS.DSSEQ" Value="1"/>
         <ItemData ItemOID="DS.DSSPID" Value="11"/>
         <ItemData ItemOID="DS.DSTERM" Value="ADVERSE EVENT"/>
         <ItemData ItemOID="DS.DSDECOD" Value="ADVERSE EVENT"/>
         <ItemData ItemOID="DS.DSCAT" Value="DISPOSITION EVENT"/>
         <ItemData ItemOID="DS.VISITNUM" Value="8"/>
         <ItemData ItemOID="DS.VISIT" Value="WEEK 8"/>
         <ItemData ItemOID="DS.DSDTC" Value="2014-03-31"/>
         <ItemData ItemOID="DS.DSSTDTC" Value="2014-03-31"/>
         <ItemData ItemOID="DS.DSSTDY" Value="69"/>
      </ItemGroupData>
      <ItemGroupData data:ItemGroupDataSeq="159" ItemGroupOID="DS">
         <ItemData ItemOID="DS.STUDYID" Value="CDISCPILOT01"/>
         <ItemData ItemOID="DS.DOMAIN" Value="DS"/>
         <ItemData ItemOID="DS.USUBJID" Value="01-704-1074"/>
         <ItemData ItemOID="DS.DSSEQ" Value="2"/>
         <ItemData ItemOID="DS.DSTERM" Value="FINAL LAB VISIT"/>
         <ItemData ItemOID="DS.DSDECOD" Value="FINAL LAB VISIT"/>
         <ItemData ItemOID="DS.DSCAT" Value="OTHER EVENT"/>
         <ItemData ItemOID="DS.VISITNUM" Value="8"/>
         <ItemData ItemOID="DS.VISIT" Value="WEEK 8"/>
         <ItemData ItemOID="DS.DSDTC" Value="2014-03-31T10:30"/>
         <ItemData ItemOID="DS.DSSTDTC" Value="2014-03-31"/>
         <ItemData ItemOID="DS.DSSTDY" Value="69"/>
      </ItemGroupData>
      <ItemGroupData data:ItemGroupDataSeq="160" ItemGroupOID="DS">
         <ItemData ItemOID="DS.STUDYID" Value="CDISCPILOT01"/>
         <ItemData ItemOID="DS.DOMAIN" Value="DS"/>
         <ItemData ItemOID="DS.USUBJID" Value="01-704-1093"/>
         <ItemData ItemOID="DS.DSSEQ" Value="1"/>
         <ItemData ItemOID="DS.DSSPID" Value="8"/>
         <ItemData ItemOID="DS.DSTERM" Value="ADVERSE EVENT"/>
         <ItemData ItemOID="DS.DSDECOD" Value="ADVERSE EVENT"/>
         <ItemData ItemOID="DS.DSCAT" Value="DISPOSITION EVENT"/>
         <ItemData ItemOID="DS.VISITNUM" Value="10"/>
         <ItemData ItemOID="DS.VISIT" Value="WEEK 16"/>
         <ItemData ItemOID="DS.DSDTC" Value="2013-06-20"/>
         <ItemData ItemOID="DS.DSSTDTC" Value="2013-06-20"/>
         <ItemData ItemOID="DS.DSSTDY" Value="98"/>
      </ItemGroupData>
      <ItemGroupData data:ItemGroupDataSeq="161" ItemGroupOID="DS">
         <ItemData ItemOID="DS.STUDYID" Value="CDISCPILOT01"/>
         <ItemData ItemOID="DS.DOMAIN" Value="DS"/>
         <ItemData ItemOID="DS.USUBJID" Value="01-704-1093"/>
         <ItemData ItemOID="DS.DSSEQ" Value="2"/>
         <ItemData ItemOID="DS.DSTERM" Value="FINAL LAB VISIT"/>
         <ItemData ItemOID="DS.DSDECOD" Value="FINAL LAB VISIT"/>
         <ItemData ItemOID="DS.DSCAT" Value="OTHER EVENT"/>
         <ItemData ItemOID="DS.VISITNUM" Value="10"/>
         <ItemData ItemOID="DS.VISIT" Value="WEEK 16"/>
         <ItemData ItemOID="DS.DSDTC" Value="2013-06-20T11:10"/>
         <ItemData ItemOID="DS.DSSTDTC" Value="2013-06-20"/>
         <ItemData ItemOID="DS.DSSTDY" Value="98"/>
      </ItemGroupData>
      <ItemGroupData data:ItemGroupDataSeq="162" ItemGroupOID="DS">
         <ItemData ItemOID="DS.STUDYID" Value="CDISCPILOT01"/>
         <ItemData ItemOID="DS.DOMAIN" Value="DS"/>
         <ItemData ItemOID="DS.USUBJID" Value="01-704-1093"/>
         <ItemData ItemOID="DS.DSSEQ" Value="3"/>
         <ItemData ItemOID="DS.DSTERM" Value="FINAL RETRIEVAL VISIT"/>
         <ItemData ItemOID="DS.DSDECOD" Value="FINAL RETRIEVAL VISIT"/>
         <ItemData ItemOID="DS.DSCAT" Value="OTHER EVENT"/>
         <ItemData ItemOID="DS.VISITNUM" Value="201"/>
         <ItemData ItemOID="DS.VISIT" Value="RETRIEVAL"/>
         <ItemData ItemOID="DS.DSDTC" Value="2013-12-25"/>
         <ItemData ItemOID="DS.DSSTDTC" Value="2013-12-25"/>
         <ItemData ItemOID="DS.DSSTDY" Value="286"/>
      </ItemGroupData>
      <ItemGroupData data:ItemGroupDataSeq="163" ItemGroupOID="DS">
         <ItemData ItemOID="DS.STUDYID" Value="CDISCPILOT01"/>
         <ItemData ItemOID="DS.DOMAIN" Value="DS"/>
         <ItemData ItemOID="DS.USUBJID" Value="01-704-1114"/>
         <ItemData ItemOID="DS.DSSEQ" Value="1"/>
         <ItemData ItemOID="DS.DSTERM" Value="LEAVING AREA FOR 5 MONTHS"/>
         <ItemData ItemOID="DS.DSDECOD" Value="WITHDRAWAL BY SUBJECT"/>
         <ItemData ItemOID="DS.DSCAT" Value="DISPOSITION EVENT"/>
         <ItemData ItemOID="DS.VISITNUM" Value="12"/>
         <ItemData ItemOID="DS.VISIT" Value="WEEK 24"/>
         <ItemData ItemOID="DS.DSDTC" Value="2013-07-08"/>
         <ItemData ItemOID="DS.DSSTDTC" Value="2013-07-08"/>
         <ItemData ItemOID="DS.DSSTDY" Value="167"/>
      </ItemGroupData>
      <ItemGroupData data:ItemGroupDataSeq="164" ItemGroupOID="DS">
         <ItemData ItemOID="DS.STUDYID" Value="CDISCPILOT01"/>
         <ItemData ItemOID="DS.DOMAIN" Value="DS"/>
         <ItemData ItemOID="DS.USUBJID" Value="01-704-1114"/>
         <ItemData ItemOID="DS.DSSEQ" Value="2"/>
         <ItemData ItemOID="DS.DSTERM" Value="FINAL LAB VISIT"/>
         <ItemData ItemOID="DS.DSDECOD" Value="FINAL LAB VISIT"/>
         <ItemData ItemOID="DS.DSCAT" Value="OTHER EVENT"/>
         <ItemData ItemOID="DS.VISITNUM" Value="12"/>
         <ItemData ItemOID="DS.VISIT" Value="WEEK 24"/>
         <ItemData ItemOID="DS.DSDTC" Value="2013-07-08T09:56"/>
         <ItemData ItemOID="DS.DSSTDTC" Value="2013-07-08"/>
         <ItemData ItemOID="DS.DSSTDY" Value="167"/>
      </ItemGroupData>
      <ItemGroupData data:ItemGroupDataSeq="165" ItemGroupOID="DS">
         <ItemData ItemOID="DS.STUDYID" Value="CDISCPILOT01"/>
         <ItemData ItemOID="DS.DOMAIN" Value="DS"/>
         <ItemData ItemOID="DS.USUBJID" Value="01-704-1120"/>
         <ItemData ItemOID="DS.DSSEQ" Value="1"/>
         <ItemData ItemOID="DS.DSSPID" Value="3"/>
         <ItemData ItemOID="DS.DSTERM" Value="ADVERSE EVENT"/>
         <ItemData ItemOID="DS.DSDECOD" Value="ADVERSE EVENT"/>
         <ItemData ItemOID="DS.DSCAT" Value="DISPOSITION EVENT"/>
         <ItemData ItemOID="DS.VISITNUM" Value="9"/>
         <ItemData ItemOID="DS.VISIT" Value="WEEK 12"/>
         <ItemData ItemOID="DS.DSDTC" Value="2014-02-03"/>
         <ItemData ItemOID="DS.DSSTDTC" Value="2014-02-03"/>
         <ItemData ItemOID="DS.DSSTDY" Value="64"/>
      </ItemGroupData>
      <ItemGroupData data:ItemGroupDataSeq="166" ItemGroupOID="DS">
         <ItemData ItemOID="DS.STUDYID" Value="CDISCPILOT01"/>
         <ItemData ItemOID="DS.DOMAIN" Value="DS"/>
         <ItemData ItemOID="DS.USUBJID" Value="01-704-1120"/>
         <ItemData ItemOID="DS.DSSEQ" Value="2"/>
         <ItemData ItemOID="DS.DSTERM" Value="FINAL LAB VISIT"/>
         <ItemData ItemOID="DS.DSDECOD" Value="FINAL LAB VISIT"/>
         <ItemData ItemOID="DS.DSCAT" Value="OTHER EVENT"/>
         <ItemData ItemOID="DS.VISITNUM" Value="9"/>
         <ItemData ItemOID="DS.VISIT" Value="WEEK 12"/>
         <ItemData ItemOID="DS.DSDTC" Value="2014-02-03T11:50"/>
         <ItemData ItemOID="DS.DSSTDTC" Value="2014-02-03"/>
         <ItemData ItemOID="DS.DSSTDY" Value="64"/>
      </ItemGroupData>
      <ItemGroupData data:ItemGroupDataSeq="167" ItemGroupOID="DS">
         <ItemData ItemOID="DS.STUDYID" Value="CDISCPILOT01"/>
         <ItemData ItemOID="DS.DOMAIN" Value="DS"/>
         <ItemData ItemOID="DS.USUBJID" Value="01-704-1127"/>
         <ItemData ItemOID="DS.DSSEQ" Value="1"/>
         <ItemData ItemOID="DS.DSTERM" Value="PROTOCOL COMPLETED"/>
         <ItemData ItemOID="DS.DSDECOD" Value="COMPLETED"/>
         <ItemData ItemOID="DS.DSCAT" Value="DISPOSITION EVENT"/>
         <ItemData ItemOID="DS.VISITNUM" Value="13"/>
         <ItemData ItemOID="DS.VISIT" Value="WEEK 26"/>
         <ItemData ItemOID="DS.DSDTC" Value="2014-03-31"/>
         <ItemData ItemOID="DS.DSSTDTC" Value="2014-03-31"/>
         <ItemData ItemOID="DS.DSSTDY" Value="181"/>
      </ItemGroupData>
      <ItemGroupData data:ItemGroupDataSeq="168" ItemGroupOID="DS">
         <ItemData ItemOID="DS.STUDYID" Value="CDISCPILOT01"/>
         <ItemData ItemOID="DS.DOMAIN" Value="DS"/>
         <ItemData ItemOID="DS.USUBJID" Value="01-704-1127"/>
         <ItemData ItemOID="DS.DSSEQ" Value="2"/>
         <ItemData ItemOID="DS.DSTERM" Value="FINAL LAB VISIT"/>
         <ItemData ItemOID="DS.DSDECOD" Value="FINAL LAB VISIT"/>
         <ItemData ItemOID="DS.DSCAT" Value="OTHER EVENT"/>
         <ItemData ItemOID="DS.VISITNUM" Value="13"/>
         <ItemData ItemOID="DS.VISIT" Value="WEEK 26"/>
         <ItemData ItemOID="DS.DSDTC" Value="2014-03-31T11:30"/>
         <ItemData ItemOID="DS.DSSTDTC" Value="2014-03-31"/>
         <ItemData ItemOID="DS.DSSTDY" Value="181"/>
      </ItemGroupData>
      <ItemGroupData data:ItemGroupDataSeq="169" ItemGroupOID="DS">
         <ItemData ItemOID="DS.STUDYID" Value="CDISCPILOT01"/>
         <ItemData ItemOID="DS.DOMAIN" Value="DS"/>
         <ItemData ItemOID="DS.USUBJID" Value="01-704-1135"/>
         <ItemData ItemOID="DS.DSSEQ" Value="1"/>
         <ItemData ItemOID="DS.DSTERM" Value="PROTOCOL COMPLETED"/>
         <ItemData ItemOID="DS.DSDECOD" Value="COMPLETED"/>
         <ItemData ItemOID="DS.DSCAT" Value="DISPOSITION EVENT"/>
         <ItemData ItemOID="DS.VISITNUM" Value="13"/>
         <ItemData ItemOID="DS.VISIT" Value="WEEK 26"/>
         <ItemData ItemOID="DS.DSDTC" Value="2014-05-16"/>
         <ItemData ItemOID="DS.DSSTDTC" Value="2014-05-16"/>
         <ItemData ItemOID="DS.DSSTDY" Value="198"/>
      </ItemGroupData>
      <ItemGroupData data:ItemGroupDataSeq="170" ItemGroupOID="DS">
         <ItemData ItemOID="DS.STUDYID" Value="CDISCPILOT01"/>
         <ItemData ItemOID="DS.DOMAIN" Value="DS"/>
         <ItemData ItemOID="DS.USUBJID" Value="01-704-1135"/>
         <ItemData ItemOID="DS.DSSEQ" Value="2"/>
         <ItemData ItemOID="DS.DSTERM" Value="FINAL LAB VISIT"/>
         <ItemData ItemOID="DS.DSDECOD" Value="FINAL LAB VISIT"/>
         <ItemData ItemOID="DS.DSCAT" Value="OTHER EVENT"/>
         <ItemData ItemOID="DS.VISITNUM" Value="13"/>
         <ItemData ItemOID="DS.VISIT" Value="WEEK 26"/>
         <ItemData ItemOID="DS.DSDTC" Value="2014-05-16T09:45"/>
         <ItemData ItemOID="DS.DSSTDTC" Value="2014-05-16"/>
         <ItemData ItemOID="DS.DSSTDY" Value="198"/>
      </ItemGroupData>
      <ItemGroupData data:ItemGroupDataSeq="171" ItemGroupOID="DS">
         <ItemData ItemOID="DS.STUDYID" Value="CDISCPILOT01"/>
         <ItemData ItemOID="DS.DOMAIN" Value="DS"/>
         <ItemData ItemOID="DS.USUBJID" Value="01-704-1164"/>
         <ItemData ItemOID="DS.DSSEQ" Value="1"/>
         <ItemData ItemOID="DS.DSTERM" Value="PROTOCOL COMPLETED"/>
         <ItemData ItemOID="DS.DSDECOD" Value="COMPLETED"/>
         <ItemData ItemOID="DS.DSCAT" Value="DISPOSITION EVENT"/>
         <ItemData ItemOID="DS.VISITNUM" Value="13"/>
         <ItemData ItemOID="DS.VISIT" Value="WEEK 26"/>
         <ItemData ItemOID="DS.DSDTC" Value="2013-04-04"/>
         <ItemData ItemOID="DS.DSSTDTC" Value="2013-04-04"/>
         <ItemData ItemOID="DS.DSSTDY" Value="198"/>
      </ItemGroupData>
      <ItemGroupData data:ItemGroupDataSeq="172" ItemGroupOID="DS">
         <ItemData ItemOID="DS.STUDYID" Value="CDISCPILOT01"/>
         <ItemData ItemOID="DS.DOMAIN" Value="DS"/>
         <ItemData ItemOID="DS.USUBJID" Value="01-704-1164"/>
         <ItemData ItemOID="DS.DSSEQ" Value="2"/>
         <ItemData ItemOID="DS.DSTERM" Value="FINAL LAB VISIT"/>
         <ItemData ItemOID="DS.DSDECOD" Value="FINAL LAB VISIT"/>
         <ItemData ItemOID="DS.DSCAT" Value="OTHER EVENT"/>
         <ItemData ItemOID="DS.VISITNUM" Value="13"/>
         <ItemData ItemOID="DS.VISIT" Value="WEEK 26"/>
         <ItemData ItemOID="DS.DSDTC" Value="2013-04-04"/>
         <ItemData ItemOID="DS.DSSTDTC" Value="2013-04-04"/>
         <ItemData ItemOID="DS.DSSTDY" Value="198"/>
      </ItemGroupData>
      <ItemGroupData data:ItemGroupDataSeq="173" ItemGroupOID="DS">
         <ItemData ItemOID="DS.STUDYID" Value="CDISCPILOT01"/>
         <ItemData ItemOID="DS.DOMAIN" Value="DS"/>
         <ItemData ItemOID="DS.USUBJID" Value="01-704-1218"/>
         <ItemData ItemOID="DS.DSSEQ" Value="1"/>
         <ItemData ItemOID="DS.DSTERM" Value="PROTOCOL COMPLETED"/>
         <ItemData ItemOID="DS.DSDECOD" Value="COMPLETED"/>
         <ItemData ItemOID="DS.DSCAT" Value="DISPOSITION EVENT"/>
         <ItemData ItemOID="DS.VISITNUM" Value="13"/>
         <ItemData ItemOID="DS.VISIT" Value="WEEK 26"/>
         <ItemData ItemOID="DS.DSDTC" Value="2013-05-27"/>
         <ItemData ItemOID="DS.DSSTDTC" Value="2013-05-27"/>
         <ItemData ItemOID="DS.DSSTDY" Value="190"/>
      </ItemGroupData>
      <ItemGroupData data:ItemGroupDataSeq="174" ItemGroupOID="DS">
         <ItemData ItemOID="DS.STUDYID" Value="CDISCPILOT01"/>
         <ItemData ItemOID="DS.DOMAIN" Value="DS"/>
         <ItemData ItemOID="DS.USUBJID" Value="01-704-1218"/>
         <ItemData ItemOID="DS.DSSEQ" Value="2"/>
         <ItemData ItemOID="DS.DSTERM" Value="FINAL LAB VISIT"/>
         <ItemData ItemOID="DS.DSDECOD" Value="FINAL LAB VISIT"/>
         <ItemData ItemOID="DS.DSCAT" Value="OTHER EVENT"/>
         <ItemData ItemOID="DS.VISITNUM" Value="13"/>
         <ItemData ItemOID="DS.VISIT" Value="WEEK 26"/>
         <ItemData ItemOID="DS.DSDTC" Value="2013-05-27T11:20"/>
         <ItemData ItemOID="DS.DSSTDTC" Value="2013-05-27"/>
         <ItemData ItemOID="DS.DSSTDY" Value="190"/>
      </ItemGroupData>
      <ItemGroupData data:ItemGroupDataSeq="175" ItemGroupOID="DS">
         <ItemData ItemOID="DS.STUDYID" Value="CDISCPILOT01"/>
         <ItemData ItemOID="DS.DOMAIN" Value="DS"/>
         <ItemData ItemOID="DS.USUBJID" Value="01-704-1233"/>
         <ItemData ItemOID="DS.DSSEQ" Value="1"/>
         <ItemData ItemOID="DS.DSTERM" Value="WITHDREW CONSENT"/>
         <ItemData ItemOID="DS.DSDECOD" Value="WITHDRAWAL BY SUBJECT"/>
         <ItemData ItemOID="DS.DSCAT" Value="DISPOSITION EVENT"/>
         <ItemData ItemOID="DS.VISITNUM" Value="11"/>
         <ItemData ItemOID="DS.VISIT" Value="WEEK 20"/>
         <ItemData ItemOID="DS.DSDTC" Value="2013-07-14"/>
         <ItemData ItemOID="DS.DSSTDTC" Value="2013-07-14"/>
         <ItemData ItemOID="DS.DSSTDY" Value="116"/>
      </ItemGroupData>
      <ItemGroupData data:ItemGroupDataSeq="176" ItemGroupOID="DS">
         <ItemData ItemOID="DS.STUDYID" Value="CDISCPILOT01"/>
         <ItemData ItemOID="DS.DOMAIN" Value="DS"/>
         <ItemData ItemOID="DS.USUBJID" Value="01-704-1233"/>
         <ItemData ItemOID="DS.DSSEQ" Value="2"/>
         <ItemData ItemOID="DS.DSTERM" Value="FINAL LAB VISIT"/>
         <ItemData ItemOID="DS.DSDECOD" Value="FINAL LAB VISIT"/>
         <ItemData ItemOID="DS.DSCAT" Value="OTHER EVENT"/>
         <ItemData ItemOID="DS.VISITNUM" Value="10"/>
         <ItemData ItemOID="DS.VISIT" Value="WEEK 16"/>
         <ItemData ItemOID="DS.DSDTC" Value="2013-07-11T11:30"/>
         <ItemData ItemOID="DS.DSSTDTC" Value="2013-07-11"/>
         <ItemData ItemOID="DS.DSSTDY" Value="113"/>
      </ItemGroupData>
      <ItemGroupData data:ItemGroupDataSeq="177" ItemGroupOID="DS">
         <ItemData ItemOID="DS.STUDYID" Value="CDISCPILOT01"/>
         <ItemData ItemOID="DS.DOMAIN" Value="DS"/>
         <ItemData ItemOID="DS.USUBJID" Value="01-704-1241"/>
         <ItemData ItemOID="DS.DSSEQ" Value="1"/>
         <ItemData ItemOID="DS.DSSPID" Value="6"/>
         <ItemData ItemOID="DS.DSTERM" Value="ADVERSE EVENT"/>
         <ItemData ItemOID="DS.DSDECOD" Value="ADVERSE EVENT"/>
         <ItemData ItemOID="DS.DSCAT" Value="DISPOSITION EVENT"/>
         <ItemData ItemOID="DS.VISITNUM" Value="8"/>
         <ItemData ItemOID="DS.VISIT" Value="WEEK 8"/>
         <ItemData ItemOID="DS.DSDTC" Value="2013-10-31"/>
         <ItemData ItemOID="DS.DSSTDTC" Value="2013-10-31"/>
         <ItemData ItemOID="DS.DSSTDY" Value="68"/>
      </ItemGroupData>
      <ItemGroupData data:ItemGroupDataSeq="178" ItemGroupOID="DS">
         <ItemData ItemOID="DS.STUDYID" Value="CDISCPILOT01"/>
         <ItemData ItemOID="DS.DOMAIN" Value="DS"/>
         <ItemData ItemOID="DS.USUBJID" Value="01-704-1241"/>
         <ItemData ItemOID="DS.DSSEQ" Value="2"/>
         <ItemData ItemOID="DS.DSTERM" Value="FINAL LAB VISIT"/>
         <ItemData ItemOID="DS.DSDECOD" Value="FINAL LAB VISIT"/>
         <ItemData ItemOID="DS.DSCAT" Value="OTHER EVENT"/>
         <ItemData ItemOID="DS.VISITNUM" Value="8"/>
         <ItemData ItemOID="DS.VISIT" Value="WEEK 8"/>
         <ItemData ItemOID="DS.DSDTC" Value="2013-10-31T09:15"/>
         <ItemData ItemOID="DS.DSSTDTC" Value="2013-10-31"/>
         <ItemData ItemOID="DS.DSSTDY" Value="68"/>
      </ItemGroupData>
      <ItemGroupData data:ItemGroupDataSeq="179" ItemGroupOID="DS">
         <ItemData ItemOID="DS.STUDYID" Value="CDISCPILOT01"/>
         <ItemData ItemOID="DS.DOMAIN" Value="DS"/>
         <ItemData ItemOID="DS.USUBJID" Value="01-704-1260"/>
         <ItemData ItemOID="DS.DSSEQ" Value="1"/>
         <ItemData ItemOID="DS.DSTERM" Value="TOO MANY VISITS"/>
         <ItemData ItemOID="DS.DSDECOD" Value="WITHDRAWAL BY SUBJECT"/>
         <ItemData ItemOID="DS.DSCAT" Value="DISPOSITION EVENT"/>
         <ItemData ItemOID="DS.VISITNUM" Value="9"/>
         <ItemData ItemOID="DS.VISIT" Value="WEEK 12"/>
         <ItemData ItemOID="DS.DSDTC" Value="2013-01-18"/>
         <ItemData ItemOID="DS.DSSTDTC" Value="2013-01-18"/>
         <ItemData ItemOID="DS.DSSTDY" Value="142"/>
      </ItemGroupData>
      <ItemGroupData data:ItemGroupDataSeq="180" ItemGroupOID="DS">
         <ItemData ItemOID="DS.STUDYID" Value="CDISCPILOT01"/>
         <ItemData ItemOID="DS.DOMAIN" Value="DS"/>
         <ItemData ItemOID="DS.USUBJID" Value="01-704-1260"/>
         <ItemData ItemOID="DS.DSSEQ" Value="2"/>
         <ItemData ItemOID="DS.DSTERM" Value="FINAL LAB VISIT"/>
         <ItemData ItemOID="DS.DSDECOD" Value="FINAL LAB VISIT"/>
         <ItemData ItemOID="DS.DSCAT" Value="OTHER EVENT"/>
         <ItemData ItemOID="DS.VISITNUM" Value="8"/>
         <ItemData ItemOID="DS.VISIT" Value="WEEK 8"/>
         <ItemData ItemOID="DS.DSDTC" Value="2012-10-24T15:45"/>
         <ItemData ItemOID="DS.DSSTDTC" Value="2012-10-24"/>
         <ItemData ItemOID="DS.DSSTDY" Value="56"/>
      </ItemGroupData>
      <ItemGroupData data:ItemGroupDataSeq="181" ItemGroupOID="DS">
         <ItemData ItemOID="DS.STUDYID" Value="CDISCPILOT01"/>
         <ItemData ItemOID="DS.DOMAIN" Value="DS"/>
         <ItemData ItemOID="DS.USUBJID" Value="01-704-1266"/>
         <ItemData ItemOID="DS.DSSEQ" Value="1"/>
         <ItemData ItemOID="DS.DSSPID" Value="16"/>
         <ItemData ItemOID="DS.DSTERM" Value="ADVERSE EVENT"/>
         <ItemData ItemOID="DS.DSDECOD" Value="ADVERSE EVENT"/>
         <ItemData ItemOID="DS.DSCAT" Value="DISPOSITION EVENT"/>
         <ItemData ItemOID="DS.VISITNUM" Value="8"/>
         <ItemData ItemOID="DS.VISIT" Value="WEEK 8"/>
         <ItemData ItemOID="DS.DSDTC" Value="2013-12-06"/>
         <ItemData ItemOID="DS.DSSTDTC" Value="2013-12-06"/>
         <ItemData ItemOID="DS.DSSTDY" Value="55"/>
      </ItemGroupData>
      <ItemGroupData data:ItemGroupDataSeq="182" ItemGroupOID="DS">
         <ItemData ItemOID="DS.STUDYID" Value="CDISCPILOT01"/>
         <ItemData ItemOID="DS.DOMAIN" Value="DS"/>
         <ItemData ItemOID="DS.USUBJID" Value="01-704-1266"/>
         <ItemData ItemOID="DS.DSSEQ" Value="2"/>
         <ItemData ItemOID="DS.DSTERM" Value="FINAL LAB VISIT"/>
         <ItemData ItemOID="DS.DSDECOD" Value="FINAL LAB VISIT"/>
         <ItemData ItemOID="DS.DSCAT" Value="OTHER EVENT"/>
         <ItemData ItemOID="DS.VISITNUM" Value="8"/>
         <ItemData ItemOID="DS.VISIT" Value="WEEK 8"/>
         <ItemData ItemOID="DS.DSDTC" Value="2013-12-06T13:15"/>
         <ItemData ItemOID="DS.DSSTDTC" Value="2013-12-06"/>
         <ItemData ItemOID="DS.DSSTDY" Value="55"/>
      </ItemGroupData>
      <ItemGroupData data:ItemGroupDataSeq="183" ItemGroupOID="DS">
         <ItemData ItemOID="DS.STUDYID" Value="CDISCPILOT01"/>
         <ItemData ItemOID="DS.DOMAIN" Value="DS"/>
         <ItemData ItemOID="DS.USUBJID" Value="01-704-1323"/>
         <ItemData ItemOID="DS.DSSEQ" Value="1"/>
         <ItemData ItemOID="DS.DSSPID" Value="12"/>
         <ItemData ItemOID="DS.DSTERM" Value="ADVERSE EVENT"/>
         <ItemData ItemOID="DS.DSDECOD" Value="ADVERSE EVENT"/>
         <ItemData ItemOID="DS.DSCAT" Value="DISPOSITION EVENT"/>
         <ItemData ItemOID="DS.VISITNUM" Value="7"/>
         <ItemData ItemOID="DS.VISIT" Value="WEEK 6"/>
         <ItemData ItemOID="DS.DSDTC" Value="2013-08-08"/>
         <ItemData ItemOID="DS.DSSTDTC" Value="2013-08-08"/>
         <ItemData ItemOID="DS.DSSTDY" Value="32"/>
      </ItemGroupData>
      <ItemGroupData data:ItemGroupDataSeq="184" ItemGroupOID="DS">
         <ItemData ItemOID="DS.STUDYID" Value="CDISCPILOT01"/>
         <ItemData ItemOID="DS.DOMAIN" Value="DS"/>
         <ItemData ItemOID="DS.USUBJID" Value="01-704-1323"/>
         <ItemData ItemOID="DS.DSSEQ" Value="2"/>
         <ItemData ItemOID="DS.DSTERM" Value="FINAL LAB VISIT"/>
         <ItemData ItemOID="DS.DSDECOD" Value="FINAL LAB VISIT"/>
         <ItemData ItemOID="DS.DSCAT" Value="OTHER EVENT"/>
         <ItemData ItemOID="DS.VISITNUM" Value="5"/>
         <ItemData ItemOID="DS.VISIT" Value="WEEK 4"/>
         <ItemData ItemOID="DS.DSDTC" Value="2013-08-04T13:45"/>
         <ItemData ItemOID="DS.DSSTDTC" Value="2013-08-04"/>
         <ItemData ItemOID="DS.DSSTDY" Value="28"/>
      </ItemGroupData>
      <ItemGroupData data:ItemGroupDataSeq="185" ItemGroupOID="DS">
         <ItemData ItemOID="DS.STUDYID" Value="CDISCPILOT01"/>
         <ItemData ItemOID="DS.DOMAIN" Value="DS"/>
         <ItemData ItemOID="DS.USUBJID" Value="01-704-1325"/>
         <ItemData ItemOID="DS.DSSEQ" Value="1"/>
         <ItemData ItemOID="DS.DSTERM" Value="PROTOCOL VIOLATION"/>
         <ItemData ItemOID="DS.DSDECOD" Value="PROTOCOL VIOLATION"/>
         <ItemData ItemOID="DS.DSCAT" Value="DISPOSITION EVENT"/>
         <ItemData ItemOID="DS.VISITNUM" Value="10"/>
         <ItemData ItemOID="DS.VISIT" Value="WEEK 16"/>
         <ItemData ItemOID="DS.DSDTC" Value="2014-08-06"/>
         <ItemData ItemOID="DS.DSSTDTC" Value="2014-08-06"/>
         <ItemData ItemOID="DS.DSSTDY" Value="106"/>
      </ItemGroupData>
      <ItemGroupData data:ItemGroupDataSeq="186" ItemGroupOID="DS">
         <ItemData ItemOID="DS.STUDYID" Value="CDISCPILOT01"/>
         <ItemData ItemOID="DS.DOMAIN" Value="DS"/>
         <ItemData ItemOID="DS.USUBJID" Value="01-704-1325"/>
         <ItemData ItemOID="DS.DSSEQ" Value="2"/>
         <ItemData ItemOID="DS.DSTERM" Value="FINAL LAB VISIT"/>
         <ItemData ItemOID="DS.DSDECOD" Value="FINAL LAB VISIT"/>
         <ItemData ItemOID="DS.DSCAT" Value="OTHER EVENT"/>
         <ItemData ItemOID="DS.VISITNUM" Value="10"/>
         <ItemData ItemOID="DS.VISIT" Value="WEEK 16"/>
         <ItemData ItemOID="DS.DSDTC" Value="2014-08-06T13:30"/>
         <ItemData ItemOID="DS.DSSTDTC" Value="2014-08-06"/>
         <ItemData ItemOID="DS.DSSTDY" Value="106"/>
      </ItemGroupData>
      <ItemGroupData data:ItemGroupDataSeq="187" ItemGroupOID="DS">
         <ItemData ItemOID="DS.STUDYID" Value="CDISCPILOT01"/>
         <ItemData ItemOID="DS.DOMAIN" Value="DS"/>
         <ItemData ItemOID="DS.USUBJID" Value="01-704-1332"/>
         <ItemData ItemOID="DS.DSSEQ" Value="1"/>
         <ItemData ItemOID="DS.DSSPID" Value="6"/>
         <ItemData ItemOID="DS.DSTERM" Value="ADVERSE EVENT"/>
         <ItemData ItemOID="DS.DSDECOD" Value="ADVERSE EVENT"/>
         <ItemData ItemOID="DS.DSCAT" Value="DISPOSITION EVENT"/>
         <ItemData ItemOID="DS.VISITNUM" Value="9"/>
         <ItemData ItemOID="DS.VISIT" Value="WEEK 12"/>
         <ItemData ItemOID="DS.DSDTC" Value="2014-02-16"/>
         <ItemData ItemOID="DS.DSSTDTC" Value="2014-02-16"/>
         <ItemData ItemOID="DS.DSSTDY" Value="70"/>
      </ItemGroupData>
      <ItemGroupData data:ItemGroupDataSeq="188" ItemGroupOID="DS">
         <ItemData ItemOID="DS.STUDYID" Value="CDISCPILOT01"/>
         <ItemData ItemOID="DS.DOMAIN" Value="DS"/>
         <ItemData ItemOID="DS.USUBJID" Value="01-704-1332"/>
         <ItemData ItemOID="DS.DSSEQ" Value="2"/>
         <ItemData ItemOID="DS.DSTERM" Value="FINAL LAB VISIT"/>
         <ItemData ItemOID="DS.DSDECOD" Value="FINAL LAB VISIT"/>
         <ItemData ItemOID="DS.DSCAT" Value="OTHER EVENT"/>
         <ItemData ItemOID="DS.VISITNUM" Value="9"/>
         <ItemData ItemOID="DS.VISIT" Value="WEEK 12"/>
         <ItemData ItemOID="DS.DSDTC" Value="2014-02-16T14:30"/>
         <ItemData ItemOID="DS.DSSTDTC" Value="2014-02-16"/>
         <ItemData ItemOID="DS.DSSTDY" Value="70"/>
      </ItemGroupData>
      <ItemGroupData data:ItemGroupDataSeq="189" ItemGroupOID="DS">
         <ItemData ItemOID="DS.STUDYID" Value="CDISCPILOT01"/>
         <ItemData ItemOID="DS.DOMAIN" Value="DS"/>
         <ItemData ItemOID="DS.USUBJID" Value="01-704-1351"/>
         <ItemData ItemOID="DS.DSSEQ" Value="1"/>
         <ItemData ItemOID="DS.DSTERM" Value="PROTOCOL COMPLETED"/>
         <ItemData ItemOID="DS.DSDECOD" Value="COMPLETED"/>
         <ItemData ItemOID="DS.DSCAT" Value="DISPOSITION EVENT"/>
         <ItemData ItemOID="DS.VISITNUM" Value="13"/>
         <ItemData ItemOID="DS.VISIT" Value="WEEK 26"/>
         <ItemData ItemOID="DS.DSDTC" Value="2014-04-18"/>
         <ItemData ItemOID="DS.DSSTDTC" Value="2014-04-18"/>
         <ItemData ItemOID="DS.DSSTDY" Value="189"/>
      </ItemGroupData>
      <ItemGroupData data:ItemGroupDataSeq="190" ItemGroupOID="DS">
         <ItemData ItemOID="DS.STUDYID" Value="CDISCPILOT01"/>
         <ItemData ItemOID="DS.DOMAIN" Value="DS"/>
         <ItemData ItemOID="DS.USUBJID" Value="01-704-1351"/>
         <ItemData ItemOID="DS.DSSEQ" Value="2"/>
         <ItemData ItemOID="DS.DSTERM" Value="FINAL LAB VISIT"/>
         <ItemData ItemOID="DS.DSDECOD" Value="FINAL LAB VISIT"/>
         <ItemData ItemOID="DS.DSCAT" Value="OTHER EVENT"/>
         <ItemData ItemOID="DS.VISITNUM" Value="13"/>
         <ItemData ItemOID="DS.VISIT" Value="WEEK 26"/>
         <ItemData ItemOID="DS.DSDTC" Value="2014-04-18T10:30"/>
         <ItemData ItemOID="DS.DSSTDTC" Value="2014-04-18"/>
         <ItemData ItemOID="DS.DSSTDY" Value="189"/>
      </ItemGroupData>
      <ItemGroupData data:ItemGroupDataSeq="191" ItemGroupOID="DS">
         <ItemData ItemOID="DS.STUDYID" Value="CDISCPILOT01"/>
         <ItemData ItemOID="DS.DOMAIN" Value="DS"/>
         <ItemData ItemOID="DS.USUBJID" Value="01-704-1388"/>
         <ItemData ItemOID="DS.DSSEQ" Value="1"/>
         <ItemData ItemOID="DS.DSTERM" Value="PROTOCOL COMPLETED"/>
         <ItemData ItemOID="DS.DSDECOD" Value="COMPLETED"/>
         <ItemData ItemOID="DS.DSCAT" Value="DISPOSITION EVENT"/>
         <ItemData ItemOID="DS.VISITNUM" Value="13"/>
         <ItemData ItemOID="DS.VISIT" Value="WEEK 26"/>
         <ItemData ItemOID="DS.DSDTC" Value="2013-06-19"/>
         <ItemData ItemOID="DS.DSSTDTC" Value="2013-06-19"/>
         <ItemData ItemOID="DS.DSSTDY" Value="195"/>
      </ItemGroupData>
      <ItemGroupData data:ItemGroupDataSeq="192" ItemGroupOID="DS">
         <ItemData ItemOID="DS.STUDYID" Value="CDISCPILOT01"/>
         <ItemData ItemOID="DS.DOMAIN" Value="DS"/>
         <ItemData ItemOID="DS.USUBJID" Value="01-704-1388"/>
         <ItemData ItemOID="DS.DSSEQ" Value="2"/>
         <ItemData ItemOID="DS.DSTERM" Value="FINAL LAB VISIT"/>
         <ItemData ItemOID="DS.DSDECOD" Value="FINAL LAB VISIT"/>
         <ItemData ItemOID="DS.DSCAT" Value="OTHER EVENT"/>
         <ItemData ItemOID="DS.VISITNUM" Value="13"/>
         <ItemData ItemOID="DS.VISIT" Value="WEEK 26"/>
         <ItemData ItemOID="DS.DSDTC" Value="2013-06-19T12:30"/>
         <ItemData ItemOID="DS.DSSTDTC" Value="2013-06-19"/>
         <ItemData ItemOID="DS.DSSTDY" Value="195"/>
      </ItemGroupData>
      <ItemGroupData data:ItemGroupDataSeq="193" ItemGroupOID="DS">
         <ItemData ItemOID="DS.STUDYID" Value="CDISCPILOT01"/>
         <ItemData ItemOID="DS.DOMAIN" Value="DS"/>
         <ItemData ItemOID="DS.USUBJID" Value="01-704-1435"/>
         <ItemData ItemOID="DS.DSSEQ" Value="1"/>
         <ItemData ItemOID="DS.DSTERM" Value="WITHDREW CONSENT"/>
         <ItemData ItemOID="DS.DSDECOD" Value="WITHDRAWAL BY SUBJECT"/>
         <ItemData ItemOID="DS.DSCAT" Value="DISPOSITION EVENT"/>
         <ItemData ItemOID="DS.VISITNUM" Value="8"/>
         <ItemData ItemOID="DS.VISIT" Value="WEEK 8"/>
         <ItemData ItemOID="DS.DSDTC" Value="2013-01-12"/>
         <ItemData ItemOID="DS.DSSTDTC" Value="2013-01-12"/>
         <ItemData ItemOID="DS.DSSTDY" Value="57"/>
      </ItemGroupData>
      <ItemGroupData data:ItemGroupDataSeq="194" ItemGroupOID="DS">
         <ItemData ItemOID="DS.STUDYID" Value="CDISCPILOT01"/>
         <ItemData ItemOID="DS.DOMAIN" Value="DS"/>
         <ItemData ItemOID="DS.USUBJID" Value="01-704-1435"/>
         <ItemData ItemOID="DS.DSSEQ" Value="2"/>
         <ItemData ItemOID="DS.DSTERM" Value="FINAL LAB VISIT"/>
         <ItemData ItemOID="DS.DSDECOD" Value="FINAL LAB VISIT"/>
         <ItemData ItemOID="DS.DSCAT" Value="OTHER EVENT"/>
         <ItemData ItemOID="DS.VISITNUM" Value="8"/>
         <ItemData ItemOID="DS.VISIT" Value="WEEK 8"/>
         <ItemData ItemOID="DS.DSDTC" Value="2013-01-12T12:00"/>
         <ItemData ItemOID="DS.DSSTDTC" Value="2013-01-12"/>
         <ItemData ItemOID="DS.DSSTDY" Value="57"/>
      </ItemGroupData>
      <ItemGroupData data:ItemGroupDataSeq="195" ItemGroupOID="DS">
         <ItemData ItemOID="DS.STUDYID" Value="CDISCPILOT01"/>
         <ItemData ItemOID="DS.DOMAIN" Value="DS"/>
         <ItemData ItemOID="DS.USUBJID" Value="01-704-1445"/>
         <ItemData ItemOID="DS.DSSEQ" Value="1"/>
         <ItemData ItemOID="DS.DSSPID" Value="8"/>
         <ItemData ItemOID="DS.DSTERM" Value="DEATH"/>
         <ItemData ItemOID="DS.DSDECOD" Value="DEATH"/>
         <ItemData ItemOID="DS.DSCAT" Value="DISPOSITION EVENT"/>
         <ItemData ItemOID="DS.VISITNUM" Value="12"/>
         <ItemData ItemOID="DS.VISIT" Value="WEEK 24"/>
         <ItemData ItemOID="DS.DSDTC" Value="2014-11-01"/>
         <ItemData ItemOID="DS.DSSTDTC" Value="2014-11-01"/>
         <ItemData ItemOID="DS.DSSTDY" Value="175"/>
      </ItemGroupData>
      <ItemGroupData data:ItemGroupDataSeq="196" ItemGroupOID="DS">
         <ItemData ItemOID="DS.STUDYID" Value="CDISCPILOT01"/>
         <ItemData ItemOID="DS.DOMAIN" Value="DS"/>
         <ItemData ItemOID="DS.USUBJID" Value="01-704-1445"/>
         <ItemData ItemOID="DS.DSSEQ" Value="2"/>
         <ItemData ItemOID="DS.DSTERM" Value="FINAL LAB VISIT"/>
         <ItemData ItemOID="DS.DSDECOD" Value="FINAL LAB VISIT"/>
         <ItemData ItemOID="DS.DSCAT" Value="OTHER EVENT"/>
         <ItemData ItemOID="DS.VISITNUM" Value="11"/>
         <ItemData ItemOID="DS.VISIT" Value="WEEK 20"/>
         <ItemData ItemOID="DS.DSDTC" Value="2014-10-01T09:30"/>
         <ItemData ItemOID="DS.DSSTDTC" Value="2014-10-01"/>
         <ItemData ItemOID="DS.DSSTDY" Value="144"/>
      </ItemGroupData>
      <ItemGroupData data:ItemGroupDataSeq="197" ItemGroupOID="DS">
         <ItemData ItemOID="DS.STUDYID" Value="CDISCPILOT01"/>
         <ItemData ItemOID="DS.DOMAIN" Value="DS"/>
         <ItemData ItemOID="DS.USUBJID" Value="01-705-1011"/>
         <ItemData ItemOID="DS.DSSEQ" Value="1"/>
         <ItemData ItemOID="DS.DSTERM" Value="SCREEN FAILURE"/>
         <ItemData ItemOID="DS.DSDECOD" Value="SCREEN FAILURE"/>
         <ItemData ItemOID="DS.DSCAT" Value="DISPOSITION EVENT"/>
         <ItemData ItemOID="DS.VISITNUM" Value="1"/>
         <ItemData ItemOID="DS.VISIT" Value="SCREENING 1"/>
         <ItemData ItemOID="DS.DSDTC" Value="2013-09-01"/>
         <ItemData ItemOID="DS.DSSTDTC" Value="2013-09-01"/>
      </ItemGroupData>
      <ItemGroupData data:ItemGroupDataSeq="198" ItemGroupOID="DS">
         <ItemData ItemOID="DS.STUDYID" Value="CDISCPILOT01"/>
         <ItemData ItemOID="DS.DOMAIN" Value="DS"/>
         <ItemData ItemOID="DS.USUBJID" Value="01-705-1018"/>
         <ItemData ItemOID="DS.DSSEQ" Value="1"/>
         <ItemData ItemOID="DS.DSTERM" Value="PATIENT WITHDREW CONSENT"/>
         <ItemData ItemOID="DS.DSDECOD" Value="WITHDRAWAL BY SUBJECT"/>
         <ItemData ItemOID="DS.DSCAT" Value="DISPOSITION EVENT"/>
         <ItemData ItemOID="DS.VISITNUM" Value="4"/>
         <ItemData ItemOID="DS.VISIT" Value="WEEK 2"/>
         <ItemData ItemOID="DS.DSDTC" Value="2013-07-12"/>
         <ItemData ItemOID="DS.DSSTDTC" Value="2013-07-12"/>
         <ItemData ItemOID="DS.DSSTDY" Value="8"/>
      </ItemGroupData>
      <ItemGroupData data:ItemGroupDataSeq="199" ItemGroupOID="DS">
         <ItemData ItemOID="DS.STUDYID" Value="CDISCPILOT01"/>
         <ItemData ItemOID="DS.DOMAIN" Value="DS"/>
         <ItemData ItemOID="DS.USUBJID" Value="01-705-1018"/>
         <ItemData ItemOID="DS.DSSEQ" Value="2"/>
         <ItemData ItemOID="DS.DSTERM" Value="FINAL LAB VISIT"/>
         <ItemData ItemOID="DS.DSDECOD" Value="FINAL LAB VISIT"/>
         <ItemData ItemOID="DS.DSCAT" Value="OTHER EVENT"/>
         <ItemData ItemOID="DS.VISITNUM" Value="1"/>
         <ItemData ItemOID="DS.VISIT" Value="SCREENING 1"/>
         <ItemData ItemOID="DS.DSDTC" Value="2013-06-30T10:00"/>
         <ItemData ItemOID="DS.DSSTDTC" Value="2013-06-30"/>
         <ItemData ItemOID="DS.DSSTDY" Value="-5"/>
      </ItemGroupData>
      <ItemGroupData data:ItemGroupDataSeq="200" ItemGroupOID="DS">
         <ItemData ItemOID="DS.STUDYID" Value="CDISCPILOT01"/>
         <ItemData ItemOID="DS.DOMAIN" Value="DS"/>
         <ItemData ItemOID="DS.USUBJID" Value="01-705-1031"/>
         <ItemData ItemOID="DS.DSSEQ" Value="1"/>
         <ItemData ItemOID="DS.DSTERM" Value="UNABLE TO CONTACT PATIENT (LOST TO FOLLOW-UP)"/>
         <ItemData ItemOID="DS.DSDECOD" Value="LOST TO FOLLOW-UP"/>
         <ItemData ItemOID="DS.DSCAT" Value="DISPOSITION EVENT"/>
         <ItemData ItemOID="DS.VISITNUM" Value="12"/>
         <ItemData ItemOID="DS.VISIT" Value="WEEK 24"/>
         <ItemData ItemOID="DS.DSDTC" Value="2014-05-11"/>
         <ItemData ItemOID="DS.DSSTDTC" Value="2014-05-11"/>
         <ItemData ItemOID="DS.DSSTDY" Value="166"/>
      </ItemGroupData>
      <ItemGroupData data:ItemGroupDataSeq="201" ItemGroupOID="DS">
         <ItemData ItemOID="DS.STUDYID" Value="CDISCPILOT01"/>
         <ItemData ItemOID="DS.DOMAIN" Value="DS"/>
         <ItemData ItemOID="DS.USUBJID" Value="01-705-1031"/>
         <ItemData ItemOID="DS.DSSEQ" Value="2"/>
         <ItemData ItemOID="DS.DSTERM" Value="FINAL LAB VISIT"/>
         <ItemData ItemOID="DS.DSDECOD" Value="FINAL LAB VISIT"/>
         <ItemData ItemOID="DS.DSCAT" Value="OTHER EVENT"/>
         <ItemData ItemOID="DS.VISITNUM" Value="12"/>
         <ItemData ItemOID="DS.VISIT" Value="WEEK 24"/>
         <ItemData ItemOID="DS.DSDTC" Value="2014-05-11T09:55"/>
         <ItemData ItemOID="DS.DSSTDTC" Value="2014-05-11"/>
         <ItemData ItemOID="DS.DSSTDY" Value="166"/>
      </ItemGroupData>
      <ItemGroupData data:ItemGroupDataSeq="202" ItemGroupOID="DS">
         <ItemData ItemOID="DS.STUDYID" Value="CDISCPILOT01"/>
         <ItemData ItemOID="DS.DOMAIN" Value="DS"/>
         <ItemData ItemOID="DS.USUBJID" Value="01-705-1058"/>
         <ItemData ItemOID="DS.DSSEQ" Value="1"/>
         <ItemData ItemOID="DS.DSTERM" Value="SCREEN FAILURE"/>
         <ItemData ItemOID="DS.DSDECOD" Value="SCREEN FAILURE"/>
         <ItemData ItemOID="DS.DSCAT" Value="DISPOSITION EVENT"/>
         <ItemData ItemOID="DS.VISITNUM" Value="1"/>
         <ItemData ItemOID="DS.VISIT" Value="SCREENING 1"/>
         <ItemData ItemOID="DS.DSDTC" Value="2013-12-02"/>
         <ItemData ItemOID="DS.DSSTDTC" Value="2013-12-02"/>
      </ItemGroupData>
      <ItemGroupData data:ItemGroupDataSeq="203" ItemGroupOID="DS">
         <ItemData ItemOID="DS.STUDYID" Value="CDISCPILOT01"/>
         <ItemData ItemOID="DS.DOMAIN" Value="DS"/>
         <ItemData ItemOID="DS.USUBJID" Value="01-705-1059"/>
         <ItemData ItemOID="DS.DSSEQ" Value="1"/>
         <ItemData ItemOID="DS.DSSPID" Value="3"/>
         <ItemData ItemOID="DS.DSTERM" Value="ADVERSE EVENT"/>
         <ItemData ItemOID="DS.DSDECOD" Value="ADVERSE EVENT"/>
         <ItemData ItemOID="DS.DSCAT" Value="DISPOSITION EVENT"/>
         <ItemData ItemOID="DS.VISITNUM" Value="10"/>
         <ItemData ItemOID="DS.VISIT" Value="WEEK 16"/>
         <ItemData ItemOID="DS.DSDTC" Value="2013-12-05"/>
         <ItemData ItemOID="DS.DSSTDTC" Value="2013-12-05"/>
         <ItemData ItemOID="DS.DSSTDY" Value="123"/>
      </ItemGroupData>
      <ItemGroupData data:ItemGroupDataSeq="204" ItemGroupOID="DS">
         <ItemData ItemOID="DS.STUDYID" Value="CDISCPILOT01"/>
         <ItemData ItemOID="DS.DOMAIN" Value="DS"/>
         <ItemData ItemOID="DS.USUBJID" Value="01-705-1059"/>
         <ItemData ItemOID="DS.DSSEQ" Value="2"/>
         <ItemData ItemOID="DS.DSTERM" Value="FINAL LAB VISIT"/>
         <ItemData ItemOID="DS.DSDECOD" Value="FINAL LAB VISIT"/>
         <ItemData ItemOID="DS.DSCAT" Value="OTHER EVENT"/>
         <ItemData ItemOID="DS.VISITNUM" Value="10"/>
         <ItemData ItemOID="DS.VISIT" Value="WEEK 16"/>
         <ItemData ItemOID="DS.DSDTC" Value="2013-12-05T09:55"/>
         <ItemData ItemOID="DS.DSSTDTC" Value="2013-12-05"/>
         <ItemData ItemOID="DS.DSSTDY" Value="123"/>
      </ItemGroupData>
      <ItemGroupData data:ItemGroupDataSeq="205" ItemGroupOID="DS">
         <ItemData ItemOID="DS.STUDYID" Value="CDISCPILOT01"/>
         <ItemData ItemOID="DS.DOMAIN" Value="DS"/>
         <ItemData ItemOID="DS.USUBJID" Value="01-705-1059"/>
         <ItemData ItemOID="DS.DSSEQ" Value="3"/>
         <ItemData ItemOID="DS.DSTERM" Value="FINAL RETRIEVAL VISIT"/>
         <ItemData ItemOID="DS.DSDECOD" Value="FINAL RETRIEVAL VISIT"/>
         <ItemData ItemOID="DS.DSCAT" Value="OTHER EVENT"/>
         <ItemData ItemOID="DS.VISITNUM" Value="201"/>
         <ItemData ItemOID="DS.VISIT" Value="RETRIEVAL"/>
         <ItemData ItemOID="DS.DSDTC" Value="2014-02-06"/>
         <ItemData ItemOID="DS.DSSTDTC" Value="2014-02-06"/>
         <ItemData ItemOID="DS.DSSTDY" Value="186"/>
      </ItemGroupData>
      <ItemGroupData data:ItemGroupDataSeq="206" ItemGroupOID="DS">
         <ItemData ItemOID="DS.STUDYID" Value="CDISCPILOT01"/>
         <ItemData ItemOID="DS.DOMAIN" Value="DS"/>
         <ItemData ItemOID="DS.USUBJID" Value="01-705-1112"/>
         <ItemData ItemOID="DS.DSSEQ" Value="1"/>
         <ItemData ItemOID="DS.DSTERM" Value="SCREEN FAILURE"/>
         <ItemData ItemOID="DS.DSDECOD" Value="SCREEN FAILURE"/>
         <ItemData ItemOID="DS.DSCAT" Value="DISPOSITION EVENT"/>
         <ItemData ItemOID="DS.VISITNUM" Value="1"/>
         <ItemData ItemOID="DS.VISIT" Value="SCREENING 1"/>
         <ItemData ItemOID="DS.DSDTC" Value="2014-02-23"/>
         <ItemData ItemOID="DS.DSSTDTC" Value="2014-02-23"/>
      </ItemGroupData>
      <ItemGroupData data:ItemGroupDataSeq="207" ItemGroupOID="DS">
         <ItemData ItemOID="DS.STUDYID" Value="CDISCPILOT01"/>
         <ItemData ItemOID="DS.DOMAIN" Value="DS"/>
         <ItemData ItemOID="DS.USUBJID" Value="01-705-1186"/>
         <ItemData ItemOID="DS.DSSEQ" Value="1"/>
         <ItemData ItemOID="DS.DSTERM" Value="HYPERBILIRUBINEMIA"/>
         <ItemData ItemOID="DS.DSDECOD" Value="PHYSICIAN DECISION"/>
         <ItemData ItemOID="DS.DSCAT" Value="DISPOSITION EVENT"/>
         <ItemData ItemOID="DS.VISITNUM" Value="5"/>
         <ItemData ItemOID="DS.VISIT" Value="WEEK 4"/>
         <ItemData ItemOID="DS.DSDTC" Value="2014-02-07"/>
         <ItemData ItemOID="DS.DSSTDTC" Value="2014-02-07"/>
         <ItemData ItemOID="DS.DSSTDY" Value="31"/>
      </ItemGroupData>
      <ItemGroupData data:ItemGroupDataSeq="208" ItemGroupOID="DS">
         <ItemData ItemOID="DS.STUDYID" Value="CDISCPILOT01"/>
         <ItemData ItemOID="DS.DOMAIN" Value="DS"/>
         <ItemData ItemOID="DS.USUBJID" Value="01-705-1186"/>
         <ItemData ItemOID="DS.DSSEQ" Value="2"/>
         <ItemData ItemOID="DS.DSTERM" Value="FINAL LAB VISIT"/>
         <ItemData ItemOID="DS.DSDECOD" Value="FINAL LAB VISIT"/>
         <ItemData ItemOID="DS.DSCAT" Value="OTHER EVENT"/>
         <ItemData ItemOID="DS.VISITNUM" Value="5.1"/>
         <ItemData ItemOID="DS.VISIT" Value="UNSCHEDULED 5.1"/>
         <ItemData ItemOID="DS.DSDTC" Value="2014-02-07T15:20"/>
         <ItemData ItemOID="DS.DSSTDTC" Value="2014-02-07"/>
         <ItemData ItemOID="DS.DSSTDY" Value="31"/>
      </ItemGroupData>
      <ItemGroupData data:ItemGroupDataSeq="209" ItemGroupOID="DS">
         <ItemData ItemOID="DS.STUDYID" Value="CDISCPILOT01"/>
         <ItemData ItemOID="DS.DOMAIN" Value="DS"/>
         <ItemData ItemOID="DS.USUBJID" Value="01-705-1199"/>
         <ItemData ItemOID="DS.DSSEQ" Value="1"/>
         <ItemData ItemOID="DS.DSSPID" Value="7"/>
         <ItemData ItemOID="DS.DSTERM" Value="ADVERSE EVENT"/>
         <ItemData ItemOID="DS.DSDECOD" Value="ADVERSE EVENT"/>
         <ItemData ItemOID="DS.DSCAT" Value="DISPOSITION EVENT"/>
         <ItemData ItemOID="DS.VISITNUM" Value="4"/>
         <ItemData ItemOID="DS.VISIT" Value="WEEK 2"/>
         <ItemData ItemOID="DS.DSDTC" Value="2013-09-29"/>
         <ItemData ItemOID="DS.DSSTDTC" Value="2013-09-29"/>
         <ItemData ItemOID="DS.DSSTDY" Value="14"/>
      </ItemGroupData>
      <ItemGroupData data:ItemGroupDataSeq="210" ItemGroupOID="DS">
         <ItemData ItemOID="DS.STUDYID" Value="CDISCPILOT01"/>
         <ItemData ItemOID="DS.DOMAIN" Value="DS"/>
         <ItemData ItemOID="DS.USUBJID" Value="01-705-1199"/>
         <ItemData ItemOID="DS.DSSEQ" Value="2"/>
         <ItemData ItemOID="DS.DSTERM" Value="FINAL LAB VISIT"/>
         <ItemData ItemOID="DS.DSDECOD" Value="FINAL LAB VISIT"/>
         <ItemData ItemOID="DS.DSCAT" Value="OTHER EVENT"/>
         <ItemData ItemOID="DS.VISITNUM" Value="4"/>
         <ItemData ItemOID="DS.VISIT" Value="WEEK 2"/>
         <ItemData ItemOID="DS.DSDTC" Value="2013-09-29T10:30"/>
         <ItemData ItemOID="DS.DSSTDTC" Value="2013-09-29"/>
         <ItemData ItemOID="DS.DSSTDY" Value="14"/>
      </ItemGroupData>
      <ItemGroupData data:ItemGroupDataSeq="211" ItemGroupOID="DS">
         <ItemData ItemOID="DS.STUDYID" Value="CDISCPILOT01"/>
         <ItemData ItemOID="DS.DOMAIN" Value="DS"/>
         <ItemData ItemOID="DS.USUBJID" Value="01-705-1243"/>
         <ItemData ItemOID="DS.DSSEQ" Value="1"/>
         <ItemData ItemOID="DS.DSTERM" Value="SCREEN FAILURE"/>
         <ItemData ItemOID="DS.DSDECOD" Value="SCREEN FAILURE"/>
         <ItemData ItemOID="DS.DSCAT" Value="DISPOSITION EVENT"/>
         <ItemData ItemOID="DS.VISITNUM" Value="1"/>
         <ItemData ItemOID="DS.VISIT" Value="SCREENING 1"/>
         <ItemData ItemOID="DS.DSDTC" Value="2013-02-26"/>
         <ItemData ItemOID="DS.DSSTDTC" Value="2013-02-26"/>
      </ItemGroupData>
      <ItemGroupData data:ItemGroupDataSeq="212" ItemGroupOID="DS">
         <ItemData ItemOID="DS.STUDYID" Value="CDISCPILOT01"/>
         <ItemData ItemOID="DS.DOMAIN" Value="DS"/>
         <ItemData ItemOID="DS.USUBJID" Value="01-705-1280"/>
         <ItemData ItemOID="DS.DSSEQ" Value="1"/>
         <ItemData ItemOID="DS.DSTERM" Value="PROTOCOL COMPLETED"/>
         <ItemData ItemOID="DS.DSDECOD" Value="COMPLETED"/>
         <ItemData ItemOID="DS.DSCAT" Value="DISPOSITION EVENT"/>
         <ItemData ItemOID="DS.VISITNUM" Value="13"/>
         <ItemData ItemOID="DS.VISIT" Value="WEEK 26"/>
         <ItemData ItemOID="DS.DSDTC" Value="2014-07-25"/>
         <ItemData ItemOID="DS.DSSTDTC" Value="2014-07-25"/>
         <ItemData ItemOID="DS.DSSTDY" Value="190"/>
      </ItemGroupData>
      <ItemGroupData data:ItemGroupDataSeq="213" ItemGroupOID="DS">
         <ItemData ItemOID="DS.STUDYID" Value="CDISCPILOT01"/>
         <ItemData ItemOID="DS.DOMAIN" Value="DS"/>
         <ItemData ItemOID="DS.USUBJID" Value="01-705-1280"/>
         <ItemData ItemOID="DS.DSSEQ" Value="2"/>
         <ItemData ItemOID="DS.DSTERM" Value="FINAL LAB VISIT"/>
         <ItemData ItemOID="DS.DSDECOD" Value="FINAL LAB VISIT"/>
         <ItemData ItemOID="DS.DSCAT" Value="OTHER EVENT"/>
         <ItemData ItemOID="DS.VISITNUM" Value="13"/>
         <ItemData ItemOID="DS.VISIT" Value="WEEK 26"/>
         <ItemData ItemOID="DS.DSDTC" Value="2014-07-24T15:30"/>
         <ItemData ItemOID="DS.DSSTDTC" Value="2014-07-24"/>
         <ItemData ItemOID="DS.DSSTDY" Value="189"/>
      </ItemGroupData>
      <ItemGroupData data:ItemGroupDataSeq="214" ItemGroupOID="DS">
         <ItemData ItemOID="DS.STUDYID" Value="CDISCPILOT01"/>
         <ItemData ItemOID="DS.DOMAIN" Value="DS"/>
         <ItemData ItemOID="DS.USUBJID" Value="01-705-1281"/>
         <ItemData ItemOID="DS.DSSEQ" Value="1"/>
         <ItemData ItemOID="DS.DSSPID" Value="5"/>
         <ItemData ItemOID="DS.DSTERM" Value="ADVERSE EVENT"/>
         <ItemData ItemOID="DS.DSDECOD" Value="ADVERSE EVENT"/>
         <ItemData ItemOID="DS.DSCAT" Value="DISPOSITION EVENT"/>
         <ItemData ItemOID="DS.VISITNUM" Value="10"/>
         <ItemData ItemOID="DS.VISIT" Value="WEEK 16"/>
         <ItemData ItemOID="DS.DSDTC" Value="2014-03-17"/>
         <ItemData ItemOID="DS.DSSTDTC" Value="2014-03-17"/>
         <ItemData ItemOID="DS.DSSTDY" Value="110"/>
      </ItemGroupData>
      <ItemGroupData data:ItemGroupDataSeq="215" ItemGroupOID="DS">
         <ItemData ItemOID="DS.STUDYID" Value="CDISCPILOT01"/>
         <ItemData ItemOID="DS.DOMAIN" Value="DS"/>
         <ItemData ItemOID="DS.USUBJID" Value="01-705-1281"/>
         <ItemData ItemOID="DS.DSSEQ" Value="2"/>
         <ItemData ItemOID="DS.DSTERM" Value="FINAL LAB VISIT"/>
         <ItemData ItemOID="DS.DSDECOD" Value="FINAL LAB VISIT"/>
         <ItemData ItemOID="DS.DSCAT" Value="OTHER EVENT"/>
         <ItemData ItemOID="DS.VISITNUM" Value="10"/>
         <ItemData ItemOID="DS.VISIT" Value="WEEK 16"/>
         <ItemData ItemOID="DS.DSDTC" Value="2014-03-17T09:50"/>
         <ItemData ItemOID="DS.DSSTDTC" Value="2014-03-17"/>
         <ItemData ItemOID="DS.DSSTDY" Value="110"/>
      </ItemGroupData>
      <ItemGroupData data:ItemGroupDataSeq="216" ItemGroupOID="DS">
         <ItemData ItemOID="DS.STUDYID" Value="CDISCPILOT01"/>
         <ItemData ItemOID="DS.DOMAIN" Value="DS"/>
         <ItemData ItemOID="DS.USUBJID" Value="01-705-1282"/>
         <ItemData ItemOID="DS.DSSEQ" Value="1"/>
         <ItemData ItemOID="DS.DSTERM" Value="PROTOCOL COMPLETED"/>
         <ItemData ItemOID="DS.DSDECOD" Value="COMPLETED"/>
         <ItemData ItemOID="DS.DSCAT" Value="DISPOSITION EVENT"/>
         <ItemData ItemOID="DS.VISITNUM" Value="13"/>
         <ItemData ItemOID="DS.VISIT" Value="WEEK 26"/>
         <ItemData ItemOID="DS.DSDTC" Value="2013-06-24"/>
         <ItemData ItemOID="DS.DSSTDTC" Value="2013-06-24"/>
         <ItemData ItemOID="DS.DSSTDY" Value="181"/>
      </ItemGroupData>
      <ItemGroupData data:ItemGroupDataSeq="217" ItemGroupOID="DS">
         <ItemData ItemOID="DS.STUDYID" Value="CDISCPILOT01"/>
         <ItemData ItemOID="DS.DOMAIN" Value="DS"/>
         <ItemData ItemOID="DS.USUBJID" Value="01-705-1282"/>
         <ItemData ItemOID="DS.DSSEQ" Value="2"/>
         <ItemData ItemOID="DS.DSTERM" Value="FINAL LAB VISIT"/>
         <ItemData ItemOID="DS.DSDECOD" Value="FINAL LAB VISIT"/>
         <ItemData ItemOID="DS.DSCAT" Value="OTHER EVENT"/>
         <ItemData ItemOID="DS.VISITNUM" Value="13"/>
         <ItemData ItemOID="DS.VISIT" Value="WEEK 26"/>
         <ItemData ItemOID="DS.DSDTC" Value="2013-06-24T15:25"/>
         <ItemData ItemOID="DS.DSSTDTC" Value="2013-06-24"/>
         <ItemData ItemOID="DS.DSSTDY" Value="181"/>
      </ItemGroupData>
      <ItemGroupData data:ItemGroupDataSeq="218" ItemGroupOID="DS">
         <ItemData ItemOID="DS.STUDYID" Value="CDISCPILOT01"/>
         <ItemData ItemOID="DS.DOMAIN" Value="DS"/>
         <ItemData ItemOID="DS.USUBJID" Value="01-705-1292"/>
         <ItemData ItemOID="DS.DSSEQ" Value="1"/>
         <ItemData ItemOID="DS.DSTERM" Value="PROTOCOL COMPLETED"/>
         <ItemData ItemOID="DS.DSDECOD" Value="COMPLETED"/>
         <ItemData ItemOID="DS.DSCAT" Value="DISPOSITION EVENT"/>
         <ItemData ItemOID="DS.VISITNUM" Value="13"/>
         <ItemData ItemOID="DS.VISIT" Value="WEEK 26"/>
         <ItemData ItemOID="DS.DSDTC" Value="2014-05-14"/>
         <ItemData ItemOID="DS.DSSTDTC" Value="2014-05-14"/>
         <ItemData ItemOID="DS.DSSTDY" Value="213"/>
      </ItemGroupData>
      <ItemGroupData data:ItemGroupDataSeq="219" ItemGroupOID="DS">
         <ItemData ItemOID="DS.STUDYID" Value="CDISCPILOT01"/>
         <ItemData ItemOID="DS.DOMAIN" Value="DS"/>
         <ItemData ItemOID="DS.USUBJID" Value="01-705-1292"/>
         <ItemData ItemOID="DS.DSSEQ" Value="2"/>
         <ItemData ItemOID="DS.DSTERM" Value="FINAL LAB VISIT"/>
         <ItemData ItemOID="DS.DSDECOD" Value="FINAL LAB VISIT"/>
         <ItemData ItemOID="DS.DSCAT" Value="OTHER EVENT"/>
         <ItemData ItemOID="DS.VISITNUM" Value="13"/>
         <ItemData ItemOID="DS.VISIT" Value="WEEK 26"/>
         <ItemData ItemOID="DS.DSDTC" Value="2014-05-14T13:33"/>
         <ItemData ItemOID="DS.DSSTDTC" Value="2014-05-14"/>
         <ItemData ItemOID="DS.DSSTDY" Value="213"/>
      </ItemGroupData>
      <ItemGroupData data:ItemGroupDataSeq="220" ItemGroupOID="DS">
         <ItemData ItemOID="DS.STUDYID" Value="CDISCPILOT01"/>
         <ItemData ItemOID="DS.DOMAIN" Value="DS"/>
         <ItemData ItemOID="DS.USUBJID" Value="01-705-1303"/>
         <ItemData ItemOID="DS.DSSEQ" Value="1"/>
         <ItemData ItemOID="DS.DSSPID" Value="3"/>
         <ItemData ItemOID="DS.DSTERM" Value="ADVERSE EVENT"/>
         <ItemData ItemOID="DS.DSDECOD" Value="ADVERSE EVENT"/>
         <ItemData ItemOID="DS.DSCAT" Value="DISPOSITION EVENT"/>
         <ItemData ItemOID="DS.VISITNUM" Value="11"/>
         <ItemData ItemOID="DS.VISIT" Value="WEEK 20"/>
         <ItemData ItemOID="DS.DSDTC" Value="2014-06-02"/>
         <ItemData ItemOID="DS.DSSTDTC" Value="2014-06-02"/>
         <ItemData ItemOID="DS.DSSTDY" Value="169"/>
      </ItemGroupData>
      <ItemGroupData data:ItemGroupDataSeq="221" ItemGroupOID="DS">
         <ItemData ItemOID="DS.STUDYID" Value="CDISCPILOT01"/>
         <ItemData ItemOID="DS.DOMAIN" Value="DS"/>
         <ItemData ItemOID="DS.USUBJID" Value="01-705-1303"/>
         <ItemData ItemOID="DS.DSSEQ" Value="2"/>
         <ItemData ItemOID="DS.DSTERM" Value="FINAL LAB VISIT"/>
         <ItemData ItemOID="DS.DSDECOD" Value="FINAL LAB VISIT"/>
         <ItemData ItemOID="DS.DSCAT" Value="OTHER EVENT"/>
         <ItemData ItemOID="DS.VISITNUM" Value="10"/>
         <ItemData ItemOID="DS.VISIT" Value="WEEK 16"/>
         <ItemData ItemOID="DS.DSDTC" Value="2014-04-07T14:27"/>
         <ItemData ItemOID="DS.DSSTDTC" Value="2014-04-07"/>
         <ItemData ItemOID="DS.DSSTDY" Value="113"/>
      </ItemGroupData>
      <ItemGroupData data:ItemGroupDataSeq="222" ItemGroupOID="DS">
         <ItemData ItemOID="DS.STUDYID" Value="CDISCPILOT01"/>
         <ItemData ItemOID="DS.DOMAIN" Value="DS"/>
         <ItemData ItemOID="DS.USUBJID" Value="01-705-1310"/>
         <ItemData ItemOID="DS.DSSEQ" Value="1"/>
         <ItemData ItemOID="DS.DSSPID" Value="3"/>
         <ItemData ItemOID="DS.DSTERM" Value="ADVERSE EVENT"/>
         <ItemData ItemOID="DS.DSDECOD" Value="ADVERSE EVENT"/>
         <ItemData ItemOID="DS.DSCAT" Value="DISPOSITION EVENT"/>
         <ItemData ItemOID="DS.VISITNUM" Value="9"/>
         <ItemData ItemOID="DS.VISIT" Value="WEEK 12"/>
         <ItemData ItemOID="DS.DSDTC" Value="2014-01-23"/>
         <ItemData ItemOID="DS.DSSTDTC" Value="2014-01-23"/>
         <ItemData ItemOID="DS.DSSTDY" Value="83"/>
      </ItemGroupData>
      <ItemGroupData data:ItemGroupDataSeq="223" ItemGroupOID="DS">
         <ItemData ItemOID="DS.STUDYID" Value="CDISCPILOT01"/>
         <ItemData ItemOID="DS.DOMAIN" Value="DS"/>
         <ItemData ItemOID="DS.USUBJID" Value="01-705-1310"/>
         <ItemData ItemOID="DS.DSSEQ" Value="2"/>
         <ItemData ItemOID="DS.DSTERM" Value="FINAL LAB VISIT"/>
         <ItemData ItemOID="DS.DSDECOD" Value="FINAL LAB VISIT"/>
         <ItemData ItemOID="DS.DSCAT" Value="OTHER EVENT"/>
         <ItemData ItemOID="DS.VISITNUM" Value="9"/>
         <ItemData ItemOID="DS.VISIT" Value="WEEK 12"/>
         <ItemData ItemOID="DS.DSDTC" Value="2014-01-23T09:40"/>
         <ItemData ItemOID="DS.DSSTDTC" Value="2014-01-23"/>
         <ItemData ItemOID="DS.DSSTDY" Value="83"/>
      </ItemGroupData>
      <ItemGroupData data:ItemGroupDataSeq="224" ItemGroupOID="DS">
         <ItemData ItemOID="DS.STUDYID" Value="CDISCPILOT01"/>
         <ItemData ItemOID="DS.DOMAIN" Value="DS"/>
         <ItemData ItemOID="DS.USUBJID" Value="01-705-1349"/>
         <ItemData ItemOID="DS.DSSEQ" Value="1"/>
         <ItemData ItemOID="DS.DSTERM" Value="PROTOCOL COMPLETED"/>
         <ItemData ItemOID="DS.DSDECOD" Value="COMPLETED"/>
         <ItemData ItemOID="DS.DSCAT" Value="DISPOSITION EVENT"/>
         <ItemData ItemOID="DS.VISITNUM" Value="13"/>
         <ItemData ItemOID="DS.VISIT" Value="WEEK 26"/>
         <ItemData ItemOID="DS.DSDTC" Value="2013-09-08"/>
         <ItemData ItemOID="DS.DSSTDTC" Value="2013-09-08"/>
         <ItemData ItemOID="DS.DSSTDY" Value="183"/>
      </ItemGroupData>
      <ItemGroupData data:ItemGroupDataSeq="225" ItemGroupOID="DS">
         <ItemData ItemOID="DS.STUDYID" Value="CDISCPILOT01"/>
         <ItemData ItemOID="DS.DOMAIN" Value="DS"/>
         <ItemData ItemOID="DS.USUBJID" Value="01-705-1349"/>
         <ItemData ItemOID="DS.DSSEQ" Value="2"/>
         <ItemData ItemOID="DS.DSTERM" Value="FINAL LAB VISIT"/>
         <ItemData ItemOID="DS.DSDECOD" Value="FINAL LAB VISIT"/>
         <ItemData ItemOID="DS.DSCAT" Value="OTHER EVENT"/>
         <ItemData ItemOID="DS.VISITNUM" Value="13"/>
         <ItemData ItemOID="DS.VISIT" Value="WEEK 26"/>
         <ItemData ItemOID="DS.DSDTC" Value="2013-09-08T10:10"/>
         <ItemData ItemOID="DS.DSSTDTC" Value="2013-09-08"/>
         <ItemData ItemOID="DS.DSSTDY" Value="183"/>
      </ItemGroupData>
      <ItemGroupData data:ItemGroupDataSeq="226" ItemGroupOID="DS">
         <ItemData ItemOID="DS.STUDYID" Value="CDISCPILOT01"/>
         <ItemData ItemOID="DS.DOMAIN" Value="DS"/>
         <ItemData ItemOID="DS.USUBJID" Value="01-705-1377"/>
         <ItemData ItemOID="DS.DSSEQ" Value="1"/>
         <ItemData ItemOID="DS.DSTERM" Value="PATIENT WITHDREW CONSENT"/>
         <ItemData ItemOID="DS.DSDECOD" Value="WITHDRAWAL BY SUBJECT"/>
         <ItemData ItemOID="DS.DSCAT" Value="DISPOSITION EVENT"/>
         <ItemData ItemOID="DS.VISITNUM" Value="7"/>
         <ItemData ItemOID="DS.VISIT" Value="WEEK 6"/>
         <ItemData ItemOID="DS.DSDTC" Value="2014-03-07"/>
         <ItemData ItemOID="DS.DSSTDTC" Value="2014-03-07"/>
         <ItemData ItemOID="DS.DSSTDY" Value="63"/>
      </ItemGroupData>
      <ItemGroupData data:ItemGroupDataSeq="227" ItemGroupOID="DS">
         <ItemData ItemOID="DS.STUDYID" Value="CDISCPILOT01"/>
         <ItemData ItemOID="DS.DOMAIN" Value="DS"/>
         <ItemData ItemOID="DS.USUBJID" Value="01-705-1377"/>
         <ItemData ItemOID="DS.DSSEQ" Value="2"/>
         <ItemData ItemOID="DS.DSTERM" Value="FINAL LAB VISIT"/>
         <ItemData ItemOID="DS.DSDECOD" Value="FINAL LAB VISIT"/>
         <ItemData ItemOID="DS.DSCAT" Value="OTHER EVENT"/>
         <ItemData ItemOID="DS.VISITNUM" Value="5"/>
         <ItemData ItemOID="DS.VISIT" Value="WEEK 4"/>
         <ItemData ItemOID="DS.DSDTC" Value="2014-02-07T09:25"/>
         <ItemData ItemOID="DS.DSSTDTC" Value="2014-02-07"/>
         <ItemData ItemOID="DS.DSSTDY" Value="35"/>
      </ItemGroupData>
      <ItemGroupData data:ItemGroupDataSeq="228" ItemGroupOID="DS">
         <ItemData ItemOID="DS.STUDYID" Value="CDISCPILOT01"/>
         <ItemData ItemOID="DS.DOMAIN" Value="DS"/>
         <ItemData ItemOID="DS.USUBJID" Value="01-705-1382"/>
         <ItemData ItemOID="DS.DSSEQ" Value="1"/>
         <ItemData ItemOID="DS.DSTERM" Value="PROTOCOL ENTRY CRITERIA NOT MET"/>
         <ItemData ItemOID="DS.DSDECOD" Value="PROTOCOL VIOLATION"/>
         <ItemData ItemOID="DS.DSCAT" Value="DISPOSITION EVENT"/>
         <ItemData ItemOID="DS.VISITNUM" Value="4"/>
         <ItemData ItemOID="DS.VISIT" Value="WEEK 2"/>
         <ItemData ItemOID="DS.DSDTC" Value="2013-05-13"/>
         <ItemData ItemOID="DS.DSSTDTC" Value="2013-05-13"/>
         <ItemData ItemOID="DS.DSSTDY" Value="1"/>
         <ItemData ItemOID="DS.ENTCRIT" Value="25"/>
      </ItemGroupData>
      <ItemGroupData data:ItemGroupDataSeq="229" ItemGroupOID="DS">
         <ItemData ItemOID="DS.STUDYID" Value="CDISCPILOT01"/>
         <ItemData ItemOID="DS.DOMAIN" Value="DS"/>
         <ItemData ItemOID="DS.USUBJID" Value="01-705-1382"/>
         <ItemData ItemOID="DS.DSSEQ" Value="2"/>
         <ItemData ItemOID="DS.DSTERM" Value="FINAL LAB VISIT"/>
         <ItemData ItemOID="DS.DSDECOD" Value="FINAL LAB VISIT"/>
         <ItemData ItemOID="DS.DSCAT" Value="OTHER EVENT"/>
         <ItemData ItemOID="DS.VISITNUM" Value="1"/>
         <ItemData ItemOID="DS.VISIT" Value="SCREENING 1"/>
         <ItemData ItemOID="DS.DSDTC" Value="2013-05-09T11:15"/>
         <ItemData ItemOID="DS.DSSTDTC" Value="2013-05-09"/>
         <ItemData ItemOID="DS.DSSTDY" Value="-4"/>
      </ItemGroupData>
      <ItemGroupData data:ItemGroupDataSeq="230" ItemGroupOID="DS">
         <ItemData ItemOID="DS.STUDYID" Value="CDISCPILOT01"/>
         <ItemData ItemOID="DS.DOMAIN" Value="DS"/>
         <ItemData ItemOID="DS.USUBJID" Value="01-705-1393"/>
         <ItemData ItemOID="DS.DSSEQ" Value="1"/>
         <ItemData ItemOID="DS.DSSPID" Value="6"/>
         <ItemData ItemOID="DS.DSTERM" Value="ADVERSE EVENT"/>
         <ItemData ItemOID="DS.DSDECOD" Value="ADVERSE EVENT"/>
         <ItemData ItemOID="DS.DSCAT" Value="DISPOSITION EVENT"/>
         <ItemData ItemOID="DS.VISITNUM" Value="11"/>
         <ItemData ItemOID="DS.VISIT" Value="WEEK 20"/>
         <ItemData ItemOID="DS.DSDTC" Value="2013-02-20"/>
         <ItemData ItemOID="DS.DSSTDTC" Value="2013-02-20"/>
         <ItemData ItemOID="DS.DSSTDY" Value="167"/>
      </ItemGroupData>
      <ItemGroupData data:ItemGroupDataSeq="231" ItemGroupOID="DS">
         <ItemData ItemOID="DS.STUDYID" Value="CDISCPILOT01"/>
         <ItemData ItemOID="DS.DOMAIN" Value="DS"/>
         <ItemData ItemOID="DS.USUBJID" Value="01-705-1393"/>
         <ItemData ItemOID="DS.DSSEQ" Value="2"/>
         <ItemData ItemOID="DS.DSTERM" Value="FINAL LAB VISIT"/>
         <ItemData ItemOID="DS.DSDECOD" Value="FINAL LAB VISIT"/>
         <ItemData ItemOID="DS.DSCAT" Value="OTHER EVENT"/>
         <ItemData ItemOID="DS.VISITNUM" Value="11"/>
         <ItemData ItemOID="DS.VISIT" Value="WEEK 20"/>
         <ItemData ItemOID="DS.DSDTC" Value="2013-02-20T16:35"/>
         <ItemData ItemOID="DS.DSSTDTC" Value="2013-02-20"/>
         <ItemData ItemOID="DS.DSSTDY" Value="167"/>
      </ItemGroupData>
      <ItemGroupData data:ItemGroupDataSeq="232" ItemGroupOID="DS">
         <ItemData ItemOID="DS.STUDYID" Value="CDISCPILOT01"/>
         <ItemData ItemOID="DS.DOMAIN" Value="DS"/>
         <ItemData ItemOID="DS.USUBJID" Value="01-705-1421"/>
         <ItemData ItemOID="DS.DSSEQ" Value="1"/>
         <ItemData ItemOID="DS.DSTERM" Value="SCREEN FAILURE"/>
         <ItemData ItemOID="DS.DSDECOD" Value="SCREEN FAILURE"/>
         <ItemData ItemOID="DS.DSCAT" Value="DISPOSITION EVENT"/>
         <ItemData ItemOID="DS.VISITNUM" Value="1"/>
         <ItemData ItemOID="DS.VISIT" Value="SCREENING 1"/>
         <ItemData ItemOID="DS.DSDTC" Value="2013-01-14"/>
         <ItemData ItemOID="DS.DSSTDTC" Value="2013-01-14"/>
      </ItemGroupData>
      <ItemGroupData data:ItemGroupDataSeq="233" ItemGroupOID="DS">
         <ItemData ItemOID="DS.STUDYID" Value="CDISCPILOT01"/>
         <ItemData ItemOID="DS.DOMAIN" Value="DS"/>
         <ItemData ItemOID="DS.USUBJID" Value="01-705-1431"/>
         <ItemData ItemOID="DS.DSSEQ" Value="1"/>
         <ItemData ItemOID="DS.DSTERM" Value="PROTOCOL COMPLETED"/>
         <ItemData ItemOID="DS.DSDECOD" Value="COMPLETED"/>
         <ItemData ItemOID="DS.DSCAT" Value="DISPOSITION EVENT"/>
         <ItemData ItemOID="DS.VISITNUM" Value="13"/>
         <ItemData ItemOID="DS.VISIT" Value="WEEK 26"/>
         <ItemData ItemOID="DS.DSDTC" Value="2013-12-19"/>
         <ItemData ItemOID="DS.DSSTDTC" Value="2013-12-19"/>
         <ItemData ItemOID="DS.DSSTDY" Value="180"/>
      </ItemGroupData>
      <ItemGroupData data:ItemGroupDataSeq="234" ItemGroupOID="DS">
         <ItemData ItemOID="DS.STUDYID" Value="CDISCPILOT01"/>
         <ItemData ItemOID="DS.DOMAIN" Value="DS"/>
         <ItemData ItemOID="DS.USUBJID" Value="01-705-1431"/>
         <ItemData ItemOID="DS.DSSEQ" Value="2"/>
         <ItemData ItemOID="DS.DSTERM" Value="FINAL LAB VISIT"/>
         <ItemData ItemOID="DS.DSDECOD" Value="FINAL LAB VISIT"/>
         <ItemData ItemOID="DS.DSCAT" Value="OTHER EVENT"/>
         <ItemData ItemOID="DS.VISITNUM" Value="13"/>
         <ItemData ItemOID="DS.VISIT" Value="WEEK 26"/>
         <ItemData ItemOID="DS.DSDTC" Value="2013-12-19T10:05"/>
         <ItemData ItemOID="DS.DSSTDTC" Value="2013-12-19"/>
         <ItemData ItemOID="DS.DSSTDY" Value="180"/>
      </ItemGroupData>
      <ItemGroupData data:ItemGroupDataSeq="235" ItemGroupOID="DS">
         <ItemData ItemOID="DS.STUDYID" Value="CDISCPILOT01"/>
         <ItemData ItemOID="DS.DOMAIN" Value="DS"/>
         <ItemData ItemOID="DS.USUBJID" Value="01-706-1041"/>
         <ItemData ItemOID="DS.DSSEQ" Value="1"/>
         <ItemData ItemOID="DS.DSTERM" Value="PROTOCOL COMPLETED"/>
         <ItemData ItemOID="DS.DSDECOD" Value="COMPLETED"/>
         <ItemData ItemOID="DS.DSCAT" Value="DISPOSITION EVENT"/>
         <ItemData ItemOID="DS.VISITNUM" Value="13"/>
         <ItemData ItemOID="DS.VISIT" Value="WEEK 26"/>
         <ItemData ItemOID="DS.DSDTC" Value="2014-07-29"/>
         <ItemData ItemOID="DS.DSSTDTC" Value="2014-07-29"/>
         <ItemData ItemOID="DS.DSSTDY" Value="211"/>
      </ItemGroupData>
      <ItemGroupData data:ItemGroupDataSeq="236" ItemGroupOID="DS">
         <ItemData ItemOID="DS.STUDYID" Value="CDISCPILOT01"/>
         <ItemData ItemOID="DS.DOMAIN" Value="DS"/>
         <ItemData ItemOID="DS.USUBJID" Value="01-706-1041"/>
         <ItemData ItemOID="DS.DSSEQ" Value="2"/>
         <ItemData ItemOID="DS.DSTERM" Value="FINAL LAB VISIT"/>
         <ItemData ItemOID="DS.DSDECOD" Value="FINAL LAB VISIT"/>
         <ItemData ItemOID="DS.DSCAT" Value="OTHER EVENT"/>
         <ItemData ItemOID="DS.VISITNUM" Value="13"/>
         <ItemData ItemOID="DS.VISIT" Value="WEEK 26"/>
         <ItemData ItemOID="DS.DSDTC" Value="2014-07-29T13:45"/>
         <ItemData ItemOID="DS.DSSTDTC" Value="2014-07-29"/>
         <ItemData ItemOID="DS.DSSTDY" Value="211"/>
      </ItemGroupData>
      <ItemGroupData data:ItemGroupDataSeq="237" ItemGroupOID="DS">
         <ItemData ItemOID="DS.STUDYID" Value="CDISCPILOT01"/>
         <ItemData ItemOID="DS.DOMAIN" Value="DS"/>
         <ItemData ItemOID="DS.USUBJID" Value="01-706-1049"/>
         <ItemData ItemOID="DS.DSSEQ" Value="1"/>
         <ItemData ItemOID="DS.DSSPID" Value="5"/>
         <ItemData ItemOID="DS.DSTERM" Value="ADVERSE EVENT"/>
         <ItemData ItemOID="DS.DSDECOD" Value="ADVERSE EVENT"/>
         <ItemData ItemOID="DS.DSCAT" Value="DISPOSITION EVENT"/>
         <ItemData ItemOID="DS.VISITNUM" Value="7"/>
         <ItemData ItemOID="DS.VISIT" Value="WEEK 6"/>
         <ItemData ItemOID="DS.DSDTC" Value="2013-06-25"/>
         <ItemData ItemOID="DS.DSSTDTC" Value="2013-06-25"/>
         <ItemData ItemOID="DS.DSSTDY" Value="43"/>
      </ItemGroupData>
      <ItemGroupData data:ItemGroupDataSeq="238" ItemGroupOID="DS">
         <ItemData ItemOID="DS.STUDYID" Value="CDISCPILOT01"/>
         <ItemData ItemOID="DS.DOMAIN" Value="DS"/>
         <ItemData ItemOID="DS.USUBJID" Value="01-706-1049"/>
         <ItemData ItemOID="DS.DSSEQ" Value="2"/>
         <ItemData ItemOID="DS.DSTERM" Value="FINAL LAB VISIT"/>
         <ItemData ItemOID="DS.DSDECOD" Value="FINAL LAB VISIT"/>
         <ItemData ItemOID="DS.DSCAT" Value="OTHER EVENT"/>
         <ItemData ItemOID="DS.VISITNUM" Value="7"/>
         <ItemData ItemOID="DS.VISIT" Value="WEEK 6"/>
         <ItemData ItemOID="DS.DSDTC" Value="2013-06-25T11:00"/>
         <ItemData ItemOID="DS.DSSTDTC" Value="2013-06-25"/>
         <ItemData ItemOID="DS.DSSTDY" Value="43"/>
      </ItemGroupData>
      <ItemGroupData data:ItemGroupDataSeq="239" ItemGroupOID="DS">
         <ItemData ItemOID="DS.STUDYID" Value="CDISCPILOT01"/>
         <ItemData ItemOID="DS.DOMAIN" Value="DS"/>
         <ItemData ItemOID="DS.USUBJID" Value="01-706-1049"/>
         <ItemData ItemOID="DS.DSSEQ" Value="3"/>
         <ItemData ItemOID="DS.DSTERM" Value="FINAL RETRIEVAL VISIT"/>
         <ItemData ItemOID="DS.DSDECOD" Value="FINAL RETRIEVAL VISIT"/>
         <ItemData ItemOID="DS.DSCAT" Value="OTHER EVENT"/>
         <ItemData ItemOID="DS.VISITNUM" Value="201"/>
         <ItemData ItemOID="DS.VISIT" Value="RETRIEVAL"/>
         <ItemData ItemOID="DS.DSDTC" Value="2013-11-26"/>
         <ItemData ItemOID="DS.DSSTDTC" Value="2013-11-26"/>
         <ItemData ItemOID="DS.DSSTDY" Value="197"/>
      </ItemGroupData>
      <ItemGroupData data:ItemGroupDataSeq="240" ItemGroupOID="DS">
         <ItemData ItemOID="DS.STUDYID" Value="CDISCPILOT01"/>
         <ItemData ItemOID="DS.DOMAIN" Value="DS"/>
         <ItemData ItemOID="DS.USUBJID" Value="01-706-1384"/>
         <ItemData ItemOID="DS.DSSEQ" Value="1"/>
         <ItemData ItemOID="DS.DSSPID" Value="14"/>
         <ItemData ItemOID="DS.DSTERM" Value="ADVERSE EVENT"/>
         <ItemData ItemOID="DS.DSDECOD" Value="ADVERSE EVENT"/>
         <ItemData ItemOID="DS.DSCAT" Value="DISPOSITION EVENT"/>
         <ItemData ItemOID="DS.VISITNUM" Value="4"/>
         <ItemData ItemOID="DS.VISIT" Value="WEEK 2"/>
         <ItemData ItemOID="DS.DSDTC" Value="2012-09-29"/>
         <ItemData ItemOID="DS.DSSTDTC" Value="2012-09-29"/>
         <ItemData ItemOID="DS.DSSTDY" Value="15"/>
      </ItemGroupData>
      <ItemGroupData data:ItemGroupDataSeq="241" ItemGroupOID="DS">
         <ItemData ItemOID="DS.STUDYID" Value="CDISCPILOT01"/>
         <ItemData ItemOID="DS.DOMAIN" Value="DS"/>
         <ItemData ItemOID="DS.USUBJID" Value="01-706-1384"/>
         <ItemData ItemOID="DS.DSSEQ" Value="2"/>
         <ItemData ItemOID="DS.DSTERM" Value="FINAL LAB VISIT"/>
         <ItemData ItemOID="DS.DSDECOD" Value="FINAL LAB VISIT"/>
         <ItemData ItemOID="DS.DSCAT" Value="OTHER EVENT"/>
         <ItemData ItemOID="DS.VISITNUM" Value="4"/>
         <ItemData ItemOID="DS.VISIT" Value="WEEK 2"/>
         <ItemData ItemOID="DS.DSDTC" Value="2012-09-29T10:00"/>
         <ItemData ItemOID="DS.DSSTDTC" Value="2012-09-29"/>
         <ItemData ItemOID="DS.DSSTDY" Value="15"/>
      </ItemGroupData>
      <ItemGroupData data:ItemGroupDataSeq="242" ItemGroupOID="DS">
         <ItemData ItemOID="DS.STUDYID" Value="CDISCPILOT01"/>
         <ItemData ItemOID="DS.DOMAIN" Value="DS"/>
         <ItemData ItemOID="DS.USUBJID" Value="01-706-1384"/>
         <ItemData ItemOID="DS.DSSEQ" Value="3"/>
         <ItemData ItemOID="DS.DSTERM" Value="FINAL RETRIEVAL VISIT"/>
         <ItemData ItemOID="DS.DSDECOD" Value="FINAL RETRIEVAL VISIT"/>
         <ItemData ItemOID="DS.DSCAT" Value="OTHER EVENT"/>
         <ItemData ItemOID="DS.VISITNUM" Value="201"/>
         <ItemData ItemOID="DS.VISIT" Value="RETRIEVAL"/>
         <ItemData ItemOID="DS.DSDTC" Value="2013-06-22"/>
         <ItemData ItemOID="DS.DSSTDTC" Value="2013-06-22"/>
         <ItemData ItemOID="DS.DSSTDY" Value="281"/>
      </ItemGroupData>
      <ItemGroupData data:ItemGroupDataSeq="243" ItemGroupOID="DS">
         <ItemData ItemOID="DS.STUDYID" Value="CDISCPILOT01"/>
         <ItemData ItemOID="DS.DOMAIN" Value="DS"/>
         <ItemData ItemOID="DS.USUBJID" Value="01-707-1037"/>
         <ItemData ItemOID="DS.DSSEQ" Value="1"/>
         <ItemData ItemOID="DS.DSTERM" Value="WITHDRAWS CONSENT"/>
         <ItemData ItemOID="DS.DSDECOD" Value="WITHDRAWAL BY SUBJECT"/>
         <ItemData ItemOID="DS.DSCAT" Value="DISPOSITION EVENT"/>
         <ItemData ItemOID="DS.VISITNUM" Value="4"/>
         <ItemData ItemOID="DS.VISIT" Value="WEEK 2"/>
         <ItemData ItemOID="DS.DSDTC" Value="2014-01-08"/>
         <ItemData ItemOID="DS.DSSTDTC" Value="2014-01-08"/>
         <ItemData ItemOID="DS.DSSTDY" Value="20"/>
      </ItemGroupData>
      <ItemGroupData data:ItemGroupDataSeq="244" ItemGroupOID="DS">
         <ItemData ItemOID="DS.STUDYID" Value="CDISCPILOT01"/>
         <ItemData ItemOID="DS.DOMAIN" Value="DS"/>
         <ItemData ItemOID="DS.USUBJID" Value="01-707-1037"/>
         <ItemData ItemOID="DS.DSSEQ" Value="2"/>
         <ItemData ItemOID="DS.DSTERM" Value="FINAL LAB VISIT"/>
         <ItemData ItemOID="DS.DSDECOD" Value="FINAL LAB VISIT"/>
         <ItemData ItemOID="DS.DSCAT" Value="OTHER EVENT"/>
         <ItemData ItemOID="DS.VISITNUM" Value="4"/>
         <ItemData ItemOID="DS.VISIT" Value="WEEK 2"/>
         <ItemData ItemOID="DS.DSDTC" Value="2014-01-08T12:40"/>
         <ItemData ItemOID="DS.DSSTDTC" Value="2014-01-08"/>
         <ItemData ItemOID="DS.DSSTDY" Value="20"/>
      </ItemGroupData>
      <ItemGroupData data:ItemGroupDataSeq="245" ItemGroupOID="DS">
         <ItemData ItemOID="DS.STUDYID" Value="CDISCPILOT01"/>
         <ItemData ItemOID="DS.DOMAIN" Value="DS"/>
         <ItemData ItemOID="DS.USUBJID" Value="01-707-1206"/>
         <ItemData ItemOID="DS.DSSEQ" Value="1"/>
         <ItemData ItemOID="DS.DSTERM" Value="PROTOCOL COMPLETED"/>
         <ItemData ItemOID="DS.DSDECOD" Value="COMPLETED"/>
         <ItemData ItemOID="DS.DSCAT" Value="DISPOSITION EVENT"/>
         <ItemData ItemOID="DS.VISITNUM" Value="13"/>
         <ItemData ItemOID="DS.VISIT" Value="WEEK 26"/>
         <ItemData ItemOID="DS.DSDTC" Value="2014-04-27"/>
         <ItemData ItemOID="DS.DSSTDTC" Value="2014-04-27"/>
         <ItemData ItemOID="DS.DSSTDY" Value="182"/>
      </ItemGroupData>
      <ItemGroupData data:ItemGroupDataSeq="246" ItemGroupOID="DS">
         <ItemData ItemOID="DS.STUDYID" Value="CDISCPILOT01"/>
         <ItemData ItemOID="DS.DOMAIN" Value="DS"/>
         <ItemData ItemOID="DS.USUBJID" Value="01-707-1206"/>
         <ItemData ItemOID="DS.DSSEQ" Value="2"/>
         <ItemData ItemOID="DS.DSTERM" Value="FINAL LAB VISIT"/>
         <ItemData ItemOID="DS.DSDECOD" Value="FINAL LAB VISIT"/>
         <ItemData ItemOID="DS.DSCAT" Value="OTHER EVENT"/>
         <ItemData ItemOID="DS.VISITNUM" Value="13"/>
         <ItemData ItemOID="DS.VISIT" Value="WEEK 26"/>
         <ItemData ItemOID="DS.DSDTC" Value="2014-04-27T08:00"/>
         <ItemData ItemOID="DS.DSSTDTC" Value="2014-04-27"/>
         <ItemData ItemOID="DS.DSSTDY" Value="182"/>
      </ItemGroupData>
      <ItemGroupData data:ItemGroupDataSeq="247" ItemGroupOID="DS">
         <ItemData ItemOID="DS.STUDYID" Value="CDISCPILOT01"/>
         <ItemData ItemOID="DS.DOMAIN" Value="DS"/>
         <ItemData ItemOID="DS.USUBJID" Value="01-707-1276"/>
         <ItemData ItemOID="DS.DSSEQ" Value="1"/>
         <ItemData ItemOID="DS.DSTERM" Value="SCREEN FAILURE"/>
         <ItemData ItemOID="DS.DSDECOD" Value="SCREEN FAILURE"/>
         <ItemData ItemOID="DS.DSCAT" Value="DISPOSITION EVENT"/>
         <ItemData ItemOID="DS.VISITNUM" Value="1"/>
         <ItemData ItemOID="DS.VISIT" Value="SCREENING 1"/>
         <ItemData ItemOID="DS.DSDTC" Value="2012-10-12"/>
         <ItemData ItemOID="DS.DSSTDTC" Value="2012-10-12"/>
      </ItemGroupData>
      <ItemGroupData data:ItemGroupDataSeq="248" ItemGroupOID="DS">
         <ItemData ItemOID="DS.STUDYID" Value="CDISCPILOT01"/>
         <ItemData ItemOID="DS.DOMAIN" Value="DS"/>
         <ItemData ItemOID="DS.USUBJID" Value="01-707-1430"/>
         <ItemData ItemOID="DS.DSSEQ" Value="1"/>
         <ItemData ItemOID="DS.DSTERM" Value="SCREEN FAILURE"/>
         <ItemData ItemOID="DS.DSDECOD" Value="SCREEN FAILURE"/>
         <ItemData ItemOID="DS.DSCAT" Value="DISPOSITION EVENT"/>
         <ItemData ItemOID="DS.VISITNUM" Value="1"/>
         <ItemData ItemOID="DS.VISIT" Value="SCREENING 1"/>
         <ItemData ItemOID="DS.DSDTC" Value="2014-02-14"/>
         <ItemData ItemOID="DS.DSSTDTC" Value="2014-02-14"/>
      </ItemGroupData>
      <ItemGroupData data:ItemGroupDataSeq="249" ItemGroupOID="DS">
         <ItemData ItemOID="DS.STUDYID" Value="CDISCPILOT01"/>
         <ItemData ItemOID="DS.DOMAIN" Value="DS"/>
         <ItemData ItemOID="DS.USUBJID" Value="01-707-1434"/>
         <ItemData ItemOID="DS.DSSEQ" Value="1"/>
         <ItemData ItemOID="DS.DSTERM" Value="SCREEN FAILURE"/>
