<?xml version="1.0" encoding="UTF-8"?>
<ODM xmlns:data="http://www.cdisc.org/ns/Dataset-XML/v1.0"
     xmlns="http://www.cdisc.org/ns/odm/v1.3"
     data:DatasetXMLVersion="1.0.0"
     ODMVersion="1.3.2"
     FileType="Snapshot"
     FileOID="SDTM-XML"
     CreationDateTime="2012-12-08T23:06:03.046+01:00">
   <ClinicalData StudyOID="LZZT" MetaDataVersionOID="CDISC.SDTM.3.1.0">
      <ItemGroupData data:ItemGroupDataSeq="1" ItemGroupOID="EX">
         <ItemData ItemOID="EX.STUDYID" Value="CDISCPILOT01"/>
         <ItemData ItemOID="EX.DOMAIN" Value="EX"/>
         <ItemData ItemOID="EX.USUBJID" Value="01-701-1015"/>
         <ItemData ItemOID="EX.EXSEQ" Value="1"/>
         <ItemData ItemOID="EX.EXTRT" Value="PLACEBO"/>
         <ItemData ItemOID="EX.EXDOSE" Value="0"/>
         <ItemData ItemOID="EX.EXDOSU" Value="mg"/>
         <ItemData ItemOID="EX.EXDOSFRM" Value="PATCH"/>
         <ItemData ItemOID="EX.EXDOSFRQ" Value="QD"/>
         <ItemData ItemOID="EX.EXROUTE" Value="TRANSDERMAL"/>
         <ItemData ItemOID="EX.VISITNUM" Value="3"/>
         <ItemData ItemOID="EX.VISIT" Value="BASELINE"/>
         <ItemData ItemOID="EX.VISITDY" Value="1"/>
         <ItemData ItemOID="EX.EXSTDTC" Value="2014-01-02"/>
         <ItemData ItemOID="EX.EXENDTC" Value="2014-01-16"/>
         <ItemData ItemOID="EX.EXSTDY" Value="1"/>
         <ItemData ItemOID="EX.EXENDY" Value="15"/>
      </ItemGroupData>
      <ItemGroupData data:ItemGroupDataSeq="2" ItemGroupOID="EX">
         <ItemData ItemOID="EX.STUDYID" Value="CDISCPILOT01"/>
         <ItemData ItemOID="EX.DOMAIN" Value="EX"/>
         <ItemData ItemOID="EX.USUBJID" Value="01-701-1015"/>
         <ItemData ItemOID="EX.EXSEQ" Value="2"/>
         <ItemData ItemOID="EX.EXTRT" Value="PLACEBO"/>
         <ItemData ItemOID="EX.EXDOSE" Value="0"/>
         <ItemData ItemOID="EX.EXDOSU" Value="mg"/>
         <ItemData ItemOID="EX.EXDOSFRM" Value="PATCH"/>
         <ItemData ItemOID="EX.EXDOSFRQ" Value="QD"/>
         <ItemData ItemOID="EX.EXROUTE" Value="TRANSDERMAL"/>
         <ItemData ItemOID="EX.VISITNUM" Value="4"/>
         <ItemData ItemOID="EX.VISIT" Value="WEEK 2"/>
         <ItemData ItemOID="EX.VISITDY" Value="14"/>
         <ItemData ItemOID="EX.EXSTDTC" Value="2014-01-17"/>
         <ItemData ItemOID="EX.EXENDTC" Value="2014-06-18"/>
         <ItemData ItemOID="EX.EXSTDY" Value="16"/>
         <ItemData ItemOID="EX.EXENDY" Value="168"/>
      </ItemGroupData>
      <ItemGroupData data:ItemGroupDataSeq="3" ItemGroupOID="EX">
         <ItemData ItemOID="EX.STUDYID" Value="CDISCPILOT01"/>
         <ItemData ItemOID="EX.DOMAIN" Value="EX"/>
         <ItemData ItemOID="EX.USUBJID" Value="01-701-1015"/>
         <ItemData ItemOID="EX.EXSEQ" Value="3"/>
         <ItemData ItemOID="EX.EXTRT" Value="PLACEBO"/>
         <ItemData ItemOID="EX.EXDOSE" Value="0"/>
         <ItemData ItemOID="EX.EXDOSU" Value="mg"/>
         <ItemData ItemOID="EX.EXDOSFRM" Value="PATCH"/>
         <ItemData ItemOID="EX.EXDOSFRQ" Value="QD"/>
         <ItemData ItemOID="EX.EXROUTE" Value="TRANSDERMAL"/>
         <ItemData ItemOID="EX.VISITNUM" Value="12"/>
         <ItemData ItemOID="EX.VISIT" Value="WEEK 24"/>
         <ItemData ItemOID="EX.VISITDY" Value="168"/>
         <ItemData ItemOID="EX.EXSTDTC" Value="2014-06-19"/>
         <ItemData ItemOID="EX.EXENDTC" Value="2014-07-02"/>
         <ItemData ItemOID="EX.EXSTDY" Value="169"/>
         <ItemData ItemOID="EX.EXENDY" Value="182"/>
      </ItemGroupData>
      <ItemGroupData data:ItemGroupDataSeq="4" ItemGroupOID="EX">
         <ItemData ItemOID="EX.STUDYID" Value="CDISCPILOT01"/>
         <ItemData ItemOID="EX.DOMAIN" Value="EX"/>
         <ItemData ItemOID="EX.USUBJID" Value="01-701-1023"/>
         <ItemData ItemOID="EX.EXSEQ" Value="1"/>
         <ItemData ItemOID="EX.EXTRT" Value="PLACEBO"/>
         <ItemData ItemOID="EX.EXDOSE" Value="0"/>
         <ItemData ItemOID="EX.EXDOSU" Value="mg"/>
         <ItemData ItemOID="EX.EXDOSFRM" Value="PATCH"/>
         <ItemData ItemOID="EX.EXDOSFRQ" Value="QD"/>
         <ItemData ItemOID="EX.EXROUTE" Value="TRANSDERMAL"/>
         <ItemData ItemOID="EX.VISITNUM" Value="3"/>
         <ItemData ItemOID="EX.VISIT" Value="BASELINE"/>
         <ItemData ItemOID="EX.VISITDY" Value="1"/>
         <ItemData ItemOID="EX.EXSTDTC" Value="2012-08-05"/>
         <ItemData ItemOID="EX.EXENDTC" Value="2012-08-27"/>
         <ItemData ItemOID="EX.EXSTDY" Value="1"/>
         <ItemData ItemOID="EX.EXENDY" Value="23"/>
      </ItemGroupData>
      <ItemGroupData data:ItemGroupDataSeq="5" ItemGroupOID="EX">
         <ItemData ItemOID="EX.STUDYID" Value="CDISCPILOT01"/>
         <ItemData ItemOID="EX.DOMAIN" Value="EX"/>
         <ItemData ItemOID="EX.USUBJID" Value="01-701-1023"/>
         <ItemData ItemOID="EX.EXSEQ" Value="2"/>
         <ItemData ItemOID="EX.EXTRT" Value="PLACEBO"/>
         <ItemData ItemOID="EX.EXDOSE" Value="0"/>
         <ItemData ItemOID="EX.EXDOSU" Value="mg"/>
         <ItemData ItemOID="EX.EXDOSFRM" Value="PATCH"/>
         <ItemData ItemOID="EX.EXDOSFRQ" Value="QD"/>
         <ItemData ItemOID="EX.EXROUTE" Value="TRANSDERMAL"/>
         <ItemData ItemOID="EX.VISITNUM" Value="4"/>
         <ItemData ItemOID="EX.VISIT" Value="WEEK 2"/>
         <ItemData ItemOID="EX.VISITDY" Value="14"/>
         <ItemData ItemOID="EX.EXSTDTC" Value="2012-08-28"/>
         <ItemData ItemOID="EX.EXENDTC" Value="2012-09-01"/>
         <ItemData ItemOID="EX.EXSTDY" Value="24"/>
         <ItemData ItemOID="EX.EXENDY" Value="28"/>
      </ItemGroupData>
      <ItemGroupData data:ItemGroupDataSeq="6" ItemGroupOID="EX">
         <ItemData ItemOID="EX.STUDYID" Value="CDISCPILOT01"/>
         <ItemData ItemOID="EX.DOMAIN" Value="EX"/>
         <ItemData ItemOID="EX.USUBJID" Value="01-701-1028"/>
         <ItemData ItemOID="EX.EXSEQ" Value="1"/>
         <ItemData ItemOID="EX.EXTRT" Value="XANOMELINE"/>
         <ItemData ItemOID="EX.EXDOSE" Value="54"/>
         <ItemData ItemOID="EX.EXDOSU" Value="mg"/>
         <ItemData ItemOID="EX.EXDOSFRM" Value="PATCH"/>
         <ItemData ItemOID="EX.EXDOSFRQ" Value="QD"/>
         <ItemData ItemOID="EX.EXROUTE" Value="TRANSDERMAL"/>
         <ItemData ItemOID="EX.VISITNUM" Value="3"/>
         <ItemData ItemOID="EX.VISIT" Value="BASELINE"/>
         <ItemData ItemOID="EX.VISITDY" Value="1"/>
         <ItemData ItemOID="EX.EXSTDTC" Value="2013-07-19"/>
         <ItemData ItemOID="EX.EXENDTC" Value="2013-08-01"/>
         <ItemData ItemOID="EX.EXSTDY" Value="1"/>
         <ItemData ItemOID="EX.EXENDY" Value="14"/>
      </ItemGroupData>
      <ItemGroupData data:ItemGroupDataSeq="7" ItemGroupOID="EX">
         <ItemData ItemOID="EX.STUDYID" Value="CDISCPILOT01"/>
         <ItemData ItemOID="EX.DOMAIN" Value="EX"/>
         <ItemData ItemOID="EX.USUBJID" Value="01-701-1028"/>
         <ItemData ItemOID="EX.EXSEQ" Value="2"/>
         <ItemData ItemOID="EX.EXTRT" Value="XANOMELINE"/>
         <ItemData ItemOID="EX.EXDOSE" Value="81"/>
         <ItemData ItemOID="EX.EXDOSU" Value="mg"/>
         <ItemData ItemOID="EX.EXDOSFRM" Value="PATCH"/>
         <ItemData ItemOID="EX.EXDOSFRQ" Value="QD"/>
         <ItemData ItemOID="EX.EXROUTE" Value="TRANSDERMAL"/>
         <ItemData ItemOID="EX.VISITNUM" Value="4"/>
         <ItemData ItemOID="EX.VISIT" Value="WEEK 2"/>
         <ItemData ItemOID="EX.VISITDY" Value="14"/>
         <ItemData ItemOID="EX.EXSTDTC" Value="2013-08-02"/>
         <ItemData ItemOID="EX.EXENDTC" Value="2014-01-06"/>
         <ItemData ItemOID="EX.EXSTDY" Value="15"/>
         <ItemData ItemOID="EX.EXENDY" Value="172"/>
      </ItemGroupData>
      <ItemGroupData data:ItemGroupDataSeq="8" ItemGroupOID="EX">
         <ItemData ItemOID="EX.STUDYID" Value="CDISCPILOT01"/>
         <ItemData ItemOID="EX.DOMAIN" Value="EX"/>
         <ItemData ItemOID="EX.USUBJID" Value="01-701-1028"/>
         <ItemData ItemOID="EX.EXSEQ" Value="3"/>
         <ItemData ItemOID="EX.EXTRT" Value="XANOMELINE"/>
         <ItemData ItemOID="EX.EXDOSE" Value="54"/>
         <ItemData ItemOID="EX.EXDOSU" Value="mg"/>
         <ItemData ItemOID="EX.EXDOSFRM" Value="PATCH"/>
         <ItemData ItemOID="EX.EXDOSFRQ" Value="QD"/>
         <ItemData ItemOID="EX.EXROUTE" Value="TRANSDERMAL"/>
         <ItemData ItemOID="EX.VISITNUM" Value="12"/>
         <ItemData ItemOID="EX.VISIT" Value="WEEK 24"/>
         <ItemData ItemOID="EX.VISITDY" Value="168"/>
         <ItemData ItemOID="EX.EXSTDTC" Value="2014-01-07"/>
         <ItemData ItemOID="EX.EXENDTC" Value="2014-01-14"/>
         <ItemData ItemOID="EX.EXSTDY" Value="173"/>
         <ItemData ItemOID="EX.EXENDY" Value="180"/>
      </ItemGroupData>
      <ItemGroupData data:ItemGroupDataSeq="9" ItemGroupOID="EX">
         <ItemData ItemOID="EX.STUDYID" Value="CDISCPILOT01"/>
         <ItemData ItemOID="EX.DOMAIN" Value="EX"/>
         <ItemData ItemOID="EX.USUBJID" Value="01-701-1033"/>
         <ItemData ItemOID="EX.EXSEQ" Value="1"/>
         <ItemData ItemOID="EX.EXTRT" Value="XANOMELINE"/>
         <ItemData ItemOID="EX.EXDOSE" Value="54"/>
         <ItemData ItemOID="EX.EXDOSU" Value="mg"/>
         <ItemData ItemOID="EX.EXDOSFRM" Value="PATCH"/>
         <ItemData ItemOID="EX.EXDOSFRQ" Value="QD"/>
         <ItemData ItemOID="EX.EXROUTE" Value="TRANSDERMAL"/>
         <ItemData ItemOID="EX.VISITNUM" Value="3"/>
         <ItemData ItemOID="EX.VISIT" Value="BASELINE"/>
         <ItemData ItemOID="EX.VISITDY" Value="1"/>
         <ItemData ItemOID="EX.EXSTDTC" Value="2014-03-18"/>
         <ItemData ItemOID="EX.EXENDTC" Value="2014-03-31"/>
         <ItemData ItemOID="EX.EXSTDY" Value="1"/>
         <ItemData ItemOID="EX.EXENDY" Value="14"/>
      </ItemGroupData>
      <ItemGroupData data:ItemGroupDataSeq="10" ItemGroupOID="EX">
         <ItemData ItemOID="EX.STUDYID" Value="CDISCPILOT01"/>
         <ItemData ItemOID="EX.DOMAIN" Value="EX"/>
         <ItemData ItemOID="EX.USUBJID" Value="01-701-1034"/>
         <ItemData ItemOID="EX.EXSEQ" Value="1"/>
         <ItemData ItemOID="EX.EXTRT" Value="XANOMELINE"/>
         <ItemData ItemOID="EX.EXDOSE" Value="54"/>
         <ItemData ItemOID="EX.EXDOSU" Value="mg"/>
         <ItemData ItemOID="EX.EXDOSFRM" Value="PATCH"/>
         <ItemData ItemOID="EX.EXDOSFRQ" Value="QD"/>
         <ItemData ItemOID="EX.EXROUTE" Value="TRANSDERMAL"/>
         <ItemData ItemOID="EX.VISITNUM" Value="3"/>
         <ItemData ItemOID="EX.VISIT" Value="BASELINE"/>
         <ItemData ItemOID="EX.VISITDY" Value="1"/>
         <ItemData ItemOID="EX.EXSTDTC" Value="2014-07-01"/>
         <ItemData ItemOID="EX.EXENDTC" Value="2014-07-15"/>
         <ItemData ItemOID="EX.EXSTDY" Value="1"/>
         <ItemData ItemOID="EX.EXENDY" Value="15"/>
      </ItemGroupData>
      <ItemGroupData data:ItemGroupDataSeq="11" ItemGroupOID="EX">
         <ItemData ItemOID="EX.STUDYID" Value="CDISCPILOT01"/>
         <ItemData ItemOID="EX.DOMAIN" Value="EX"/>
         <ItemData ItemOID="EX.USUBJID" Value="01-701-1034"/>
         <ItemData ItemOID="EX.EXSEQ" Value="2"/>
         <ItemData ItemOID="EX.EXTRT" Value="XANOMELINE"/>
         <ItemData ItemOID="EX.EXDOSE" Value="81"/>
         <ItemData ItemOID="EX.EXDOSU" Value="mg"/>
         <ItemData ItemOID="EX.EXDOSFRM" Value="PATCH"/>
         <ItemData ItemOID="EX.EXDOSFRQ" Value="QD"/>
         <ItemData ItemOID="EX.EXROUTE" Value="TRANSDERMAL"/>
         <ItemData ItemOID="EX.VISITNUM" Value="4"/>
         <ItemData ItemOID="EX.VISIT" Value="WEEK 2"/>
         <ItemData ItemOID="EX.VISITDY" Value="14"/>
         <ItemData ItemOID="EX.EXSTDTC" Value="2014-07-16"/>
         <ItemData ItemOID="EX.EXENDTC" Value="2014-12-17"/>
         <ItemData ItemOID="EX.EXSTDY" Value="16"/>
         <ItemData ItemOID="EX.EXENDY" Value="170"/>
      </ItemGroupData>
      <ItemGroupData data:ItemGroupDataSeq="12" ItemGroupOID="EX">
         <ItemData ItemOID="EX.STUDYID" Value="CDISCPILOT01"/>
         <ItemData ItemOID="EX.DOMAIN" Value="EX"/>
         <ItemData ItemOID="EX.USUBJID" Value="01-701-1034"/>
         <ItemData ItemOID="EX.EXSEQ" Value="3"/>
         <ItemData ItemOID="EX.EXTRT" Value="XANOMELINE"/>
         <ItemData ItemOID="EX.EXDOSE" Value="54"/>
         <ItemData ItemOID="EX.EXDOSU" Value="mg"/>
         <ItemData ItemOID="EX.EXDOSFRM" Value="PATCH"/>
         <ItemData ItemOID="EX.EXDOSFRQ" Value="QD"/>
         <ItemData ItemOID="EX.EXROUTE" Value="TRANSDERMAL"/>
         <ItemData ItemOID="EX.VISITNUM" Value="12"/>
         <ItemData ItemOID="EX.VISIT" Value="WEEK 24"/>
         <ItemData ItemOID="EX.VISITDY" Value="168"/>
         <ItemData ItemOID="EX.EXSTDTC" Value="2014-12-18"/>
         <ItemData ItemOID="EX.EXENDTC" Value="2014-12-30"/>
         <ItemData ItemOID="EX.EXSTDY" Value="171"/>
         <ItemData ItemOID="EX.EXENDY" Value="183"/>
      </ItemGroupData>
      <ItemGroupData data:ItemGroupDataSeq="13" ItemGroupOID="EX">
         <ItemData ItemOID="EX.STUDYID" Value="CDISCPILOT01"/>
         <ItemData ItemOID="EX.DOMAIN" Value="EX"/>
         <ItemData ItemOID="EX.USUBJID" Value="01-701-1047"/>
         <ItemData ItemOID="EX.EXSEQ" Value="1"/>
         <ItemData ItemOID="EX.EXTRT" Value="PLACEBO"/>
         <ItemData ItemOID="EX.EXDOSE" Value="0"/>
         <ItemData ItemOID="EX.EXDOSU" Value="mg"/>
         <ItemData ItemOID="EX.EXDOSFRM" Value="PATCH"/>
         <ItemData ItemOID="EX.EXDOSFRQ" Value="QD"/>
         <ItemData ItemOID="EX.EXROUTE" Value="TRANSDERMAL"/>
         <ItemData ItemOID="EX.VISITNUM" Value="3"/>
         <ItemData ItemOID="EX.VISIT" Value="BASELINE"/>
         <ItemData ItemOID="EX.VISITDY" Value="1"/>
         <ItemData ItemOID="EX.EXSTDTC" Value="2013-02-12"/>
         <ItemData ItemOID="EX.EXENDTC" Value="2013-02-25"/>
         <ItemData ItemOID="EX.EXSTDY" Value="1"/>
         <ItemData ItemOID="EX.EXENDY" Value="14"/>
      </ItemGroupData>
      <ItemGroupData data:ItemGroupDataSeq="14" ItemGroupOID="EX">
         <ItemData ItemOID="EX.STUDYID" Value="CDISCPILOT01"/>
         <ItemData ItemOID="EX.DOMAIN" Value="EX"/>
         <ItemData ItemOID="EX.USUBJID" Value="01-701-1047"/>
         <ItemData ItemOID="EX.EXSEQ" Value="2"/>
         <ItemData ItemOID="EX.EXTRT" Value="PLACEBO"/>
         <ItemData ItemOID="EX.EXDOSE" Value="0"/>
         <ItemData ItemOID="EX.EXDOSU" Value="mg"/>
         <ItemData ItemOID="EX.EXDOSFRM" Value="PATCH"/>
         <ItemData ItemOID="EX.EXDOSFRQ" Value="QD"/>
         <ItemData ItemOID="EX.EXROUTE" Value="TRANSDERMAL"/>
         <ItemData ItemOID="EX.VISITNUM" Value="4"/>
         <ItemData ItemOID="EX.VISIT" Value="WEEK 2"/>
         <ItemData ItemOID="EX.VISITDY" Value="14"/>
         <ItemData ItemOID="EX.EXSTDTC" Value="2013-02-26"/>
         <ItemData ItemOID="EX.EXENDTC" Value="2013-03-09"/>
         <ItemData ItemOID="EX.EXSTDY" Value="15"/>
         <ItemData ItemOID="EX.EXENDY" Value="26"/>
      </ItemGroupData>
      <ItemGroupData data:ItemGroupDataSeq="15" ItemGroupOID="EX">
         <ItemData ItemOID="EX.STUDYID" Value="CDISCPILOT01"/>
         <ItemData ItemOID="EX.DOMAIN" Value="EX"/>
         <ItemData ItemOID="EX.USUBJID" Value="01-701-1097"/>
         <ItemData ItemOID="EX.EXSEQ" Value="1"/>
         <ItemData ItemOID="EX.EXTRT" Value="XANOMELINE"/>
         <ItemData ItemOID="EX.EXDOSE" Value="54"/>
         <ItemData ItemOID="EX.EXDOSU" Value="mg"/>
         <ItemData ItemOID="EX.EXDOSFRM" Value="PATCH"/>
         <ItemData ItemOID="EX.EXDOSFRQ" Value="QD"/>
         <ItemData ItemOID="EX.EXROUTE" Value="TRANSDERMAL"/>
         <ItemData ItemOID="EX.VISITNUM" Value="3"/>
         <ItemData ItemOID="EX.VISIT" Value="BASELINE"/>
         <ItemData ItemOID="EX.VISITDY" Value="1"/>
         <ItemData ItemOID="EX.EXSTDTC" Value="2014-01-01"/>
         <ItemData ItemOID="EX.EXENDTC" Value="2014-01-15"/>
         <ItemData ItemOID="EX.EXSTDY" Value="1"/>
         <ItemData ItemOID="EX.EXENDY" Value="15"/>
      </ItemGroupData>
      <ItemGroupData data:ItemGroupDataSeq="16" ItemGroupOID="EX">
         <ItemData ItemOID="EX.STUDYID" Value="CDISCPILOT01"/>
         <ItemData ItemOID="EX.DOMAIN" Value="EX"/>
         <ItemData ItemOID="EX.USUBJID" Value="01-701-1097"/>
         <ItemData ItemOID="EX.EXSEQ" Value="2"/>
         <ItemData ItemOID="EX.EXTRT" Value="XANOMELINE"/>
         <ItemData ItemOID="EX.EXDOSE" Value="54"/>
         <ItemData ItemOID="EX.EXDOSU" Value="mg"/>
         <ItemData ItemOID="EX.EXDOSFRM" Value="PATCH"/>
         <ItemData ItemOID="EX.EXDOSFRQ" Value="QD"/>
         <ItemData ItemOID="EX.EXROUTE" Value="TRANSDERMAL"/>
         <ItemData ItemOID="EX.VISITNUM" Value="4"/>
         <ItemData ItemOID="EX.VISIT" Value="WEEK 2"/>
         <ItemData ItemOID="EX.VISITDY" Value="14"/>
         <ItemData ItemOID="EX.EXSTDTC" Value="2014-01-16"/>
         <ItemData ItemOID="EX.EXENDTC" Value="2014-06-18"/>
         <ItemData ItemOID="EX.EXSTDY" Value="16"/>
         <ItemData ItemOID="EX.EXENDY" Value="169"/>
      </ItemGroupData>
      <ItemGroupData data:ItemGroupDataSeq="17" ItemGroupOID="EX">
         <ItemData ItemOID="EX.STUDYID" Value="CDISCPILOT01"/>
         <ItemData ItemOID="EX.DOMAIN" Value="EX"/>
         <ItemData ItemOID="EX.USUBJID" Value="01-701-1097"/>
         <ItemData ItemOID="EX.EXSEQ" Value="3"/>
         <ItemData ItemOID="EX.EXTRT" Value="XANOMELINE"/>
         <ItemData ItemOID="EX.EXDOSE" Value="54"/>
         <ItemData ItemOID="EX.EXDOSU" Value="mg"/>
         <ItemData ItemOID="EX.EXDOSFRM" Value="PATCH"/>
         <ItemData ItemOID="EX.EXDOSFRQ" Value="QD"/>
         <ItemData ItemOID="EX.EXROUTE" Value="TRANSDERMAL"/>
         <ItemData ItemOID="EX.VISITNUM" Value="12"/>
         <ItemData ItemOID="EX.VISIT" Value="WEEK 24"/>
         <ItemData ItemOID="EX.VISITDY" Value="168"/>
         <ItemData ItemOID="EX.EXSTDTC" Value="2014-06-19"/>
         <ItemData ItemOID="EX.EXENDTC" Value="2014-07-09"/>
         <ItemData ItemOID="EX.EXSTDY" Value="170"/>
         <ItemData ItemOID="EX.EXENDY" Value="190"/>
      </ItemGroupData>
      <ItemGroupData data:ItemGroupDataSeq="18" ItemGroupOID="EX">
         <ItemData ItemOID="EX.STUDYID" Value="CDISCPILOT01"/>
         <ItemData ItemOID="EX.DOMAIN" Value="EX"/>
         <ItemData ItemOID="EX.USUBJID" Value="01-701-1111"/>
         <ItemData ItemOID="EX.EXSEQ" Value="1"/>
         <ItemData ItemOID="EX.EXTRT" Value="XANOMELINE"/>
         <ItemData ItemOID="EX.EXDOSE" Value="54"/>
         <ItemData ItemOID="EX.EXDOSU" Value="mg"/>
         <ItemData ItemOID="EX.EXDOSFRM" Value="PATCH"/>
         <ItemData ItemOID="EX.EXDOSFRQ" Value="QD"/>
         <ItemData ItemOID="EX.EXROUTE" Value="TRANSDERMAL"/>
         <ItemData ItemOID="EX.VISITNUM" Value="3"/>
         <ItemData ItemOID="EX.VISIT" Value="BASELINE"/>
         <ItemData ItemOID="EX.VISITDY" Value="1"/>
         <ItemData ItemOID="EX.EXSTDTC" Value="2012-09-07"/>
         <ItemData ItemOID="EX.EXENDTC" Value="2012-09-16"/>
         <ItemData ItemOID="EX.EXSTDY" Value="1"/>
         <ItemData ItemOID="EX.EXENDY" Value="10"/>
      </ItemGroupData>
      <ItemGroupData data:ItemGroupDataSeq="19" ItemGroupOID="EX">
         <ItemData ItemOID="EX.STUDYID" Value="CDISCPILOT01"/>
         <ItemData ItemOID="EX.DOMAIN" Value="EX"/>
         <ItemData ItemOID="EX.USUBJID" Value="01-701-1115"/>
         <ItemData ItemOID="EX.EXSEQ" Value="1"/>
         <ItemData ItemOID="EX.EXTRT" Value="XANOMELINE"/>
         <ItemData ItemOID="EX.EXDOSE" Value="54"/>
         <ItemData ItemOID="EX.EXDOSU" Value="mg"/>
         <ItemData ItemOID="EX.EXDOSFRM" Value="PATCH"/>
         <ItemData ItemOID="EX.EXDOSFRQ" Value="QD"/>
         <ItemData ItemOID="EX.EXROUTE" Value="TRANSDERMAL"/>
         <ItemData ItemOID="EX.VISITNUM" Value="3"/>
         <ItemData ItemOID="EX.VISIT" Value="BASELINE"/>
         <ItemData ItemOID="EX.VISITDY" Value="1"/>
         <ItemData ItemOID="EX.EXSTDTC" Value="2012-11-30"/>
         <ItemData ItemOID="EX.EXENDTC" Value="2012-12-13"/>
         <ItemData ItemOID="EX.EXSTDY" Value="1"/>
         <ItemData ItemOID="EX.EXENDY" Value="14"/>
      </ItemGroupData>
      <ItemGroupData data:ItemGroupDataSeq="20" ItemGroupOID="EX">
         <ItemData ItemOID="EX.STUDYID" Value="CDISCPILOT01"/>
         <ItemData ItemOID="EX.DOMAIN" Value="EX"/>
         <ItemData ItemOID="EX.USUBJID" Value="01-701-1115"/>
         <ItemData ItemOID="EX.EXSEQ" Value="2"/>
         <ItemData ItemOID="EX.EXTRT" Value="XANOMELINE"/>
         <ItemData ItemOID="EX.EXDOSE" Value="54"/>
         <ItemData ItemOID="EX.EXDOSU" Value="mg"/>
         <ItemData ItemOID="EX.EXDOSFRM" Value="PATCH"/>
         <ItemData ItemOID="EX.EXDOSFRQ" Value="QD"/>
         <ItemData ItemOID="EX.EXROUTE" Value="TRANSDERMAL"/>
         <ItemData ItemOID="EX.VISITNUM" Value="4"/>
         <ItemData ItemOID="EX.VISIT" Value="WEEK 2"/>
         <ItemData ItemOID="EX.VISITDY" Value="14"/>
         <ItemData ItemOID="EX.EXSTDTC" Value="2012-12-14"/>
         <ItemData ItemOID="EX.EXENDTC" Value="2013-01-23"/>
         <ItemData ItemOID="EX.EXSTDY" Value="15"/>
         <ItemData ItemOID="EX.EXENDY" Value="55"/>
      </ItemGroupData>
      <ItemGroupData data:ItemGroupDataSeq="21" ItemGroupOID="EX">
         <ItemData ItemOID="EX.STUDYID" Value="CDISCPILOT01"/>
         <ItemData ItemOID="EX.DOMAIN" Value="EX"/>
         <ItemData ItemOID="EX.USUBJID" Value="01-701-1118"/>
         <ItemData ItemOID="EX.EXSEQ" Value="1"/>
         <ItemData ItemOID="EX.EXTRT" Value="PLACEBO"/>
         <ItemData ItemOID="EX.EXDOSE" Value="0"/>
         <ItemData ItemOID="EX.EXDOSU" Value="mg"/>
         <ItemData ItemOID="EX.EXDOSFRM" Value="PATCH"/>
         <ItemData ItemOID="EX.EXDOSFRQ" Value="QD"/>
         <ItemData ItemOID="EX.EXROUTE" Value="TRANSDERMAL"/>
         <ItemData ItemOID="EX.VISITNUM" Value="3"/>
         <ItemData ItemOID="EX.VISIT" Value="BASELINE"/>
         <ItemData ItemOID="EX.VISITDY" Value="1"/>
         <ItemData ItemOID="EX.EXSTDTC" Value="2014-03-12"/>
         <ItemData ItemOID="EX.EXENDTC" Value="2014-03-26"/>
         <ItemData ItemOID="EX.EXSTDY" Value="1"/>
         <ItemData ItemOID="EX.EXENDY" Value="15"/>
      </ItemGroupData>
      <ItemGroupData data:ItemGroupDataSeq="22" ItemGroupOID="EX">
         <ItemData ItemOID="EX.STUDYID" Value="CDISCPILOT01"/>
         <ItemData ItemOID="EX.DOMAIN" Value="EX"/>
         <ItemData ItemOID="EX.USUBJID" Value="01-701-1118"/>
         <ItemData ItemOID="EX.EXSEQ" Value="2"/>
         <ItemData ItemOID="EX.EXTRT" Value="PLACEBO"/>
         <ItemData ItemOID="EX.EXDOSE" Value="0"/>
         <ItemData ItemOID="EX.EXDOSU" Value="mg"/>
         <ItemData ItemOID="EX.EXDOSFRM" Value="PATCH"/>
         <ItemData ItemOID="EX.EXDOSFRQ" Value="QD"/>
         <ItemData ItemOID="EX.EXROUTE" Value="TRANSDERMAL"/>
         <ItemData ItemOID="EX.VISITNUM" Value="4"/>
         <ItemData ItemOID="EX.VISIT" Value="WEEK 2"/>
         <ItemData ItemOID="EX.VISITDY" Value="14"/>
         <ItemData ItemOID="EX.EXSTDTC" Value="2014-03-27"/>
         <ItemData ItemOID="EX.EXENDTC" Value="2014-08-27"/>
         <ItemData ItemOID="EX.EXSTDY" Value="16"/>
         <ItemData ItemOID="EX.EXENDY" Value="169"/>
      </ItemGroupData>
      <ItemGroupData data:ItemGroupDataSeq="23" ItemGroupOID="EX">
         <ItemData ItemOID="EX.STUDYID" Value="CDISCPILOT01"/>
         <ItemData ItemOID="EX.DOMAIN" Value="EX"/>
         <ItemData ItemOID="EX.USUBJID" Value="01-701-1118"/>
         <ItemData ItemOID="EX.EXSEQ" Value="3"/>
         <ItemData ItemOID="EX.EXTRT" Value="PLACEBO"/>
         <ItemData ItemOID="EX.EXDOSE" Value="0"/>
         <ItemData ItemOID="EX.EXDOSU" Value="mg"/>
         <ItemData ItemOID="EX.EXDOSFRM" Value="PATCH"/>
         <ItemData ItemOID="EX.EXDOSFRQ" Value="QD"/>
         <ItemData ItemOID="EX.EXROUTE" Value="TRANSDERMAL"/>
         <ItemData ItemOID="EX.VISITNUM" Value="12"/>
         <ItemData ItemOID="EX.VISIT" Value="WEEK 24"/>
         <ItemData ItemOID="EX.VISITDY" Value="168"/>
         <ItemData ItemOID="EX.EXSTDTC" Value="2014-08-28"/>
         <ItemData ItemOID="EX.EXENDTC" Value="2014-09-09"/>
         <ItemData ItemOID="EX.EXSTDY" Value="170"/>
         <ItemData ItemOID="EX.EXENDY" Value="182"/>
      </ItemGroupData>
      <ItemGroupData data:ItemGroupDataSeq="24" ItemGroupOID="EX">
         <ItemData ItemOID="EX.STUDYID" Value="CDISCPILOT01"/>
         <ItemData ItemOID="EX.DOMAIN" Value="EX"/>
         <ItemData ItemOID="EX.USUBJID" Value="01-701-1130"/>
         <ItemData ItemOID="EX.EXSEQ" Value="1"/>
         <ItemData ItemOID="EX.EXTRT" Value="PLACEBO"/>
         <ItemData ItemOID="EX.EXDOSE" Value="0"/>
         <ItemData ItemOID="EX.EXDOSU" Value="mg"/>
         <ItemData ItemOID="EX.EXDOSFRM" Value="PATCH"/>
         <ItemData ItemOID="EX.EXDOSFRQ" Value="QD"/>
         <ItemData ItemOID="EX.EXROUTE" Value="TRANSDERMAL"/>
         <ItemData ItemOID="EX.VISITNUM" Value="3"/>
         <ItemData ItemOID="EX.VISIT" Value="BASELINE"/>
         <ItemData ItemOID="EX.VISITDY" Value="1"/>
         <ItemData ItemOID="EX.EXSTDTC" Value="2014-02-15"/>
         <ItemData ItemOID="EX.EXENDTC" Value="2014-03-01"/>
         <ItemData ItemOID="EX.EXSTDY" Value="1"/>
         <ItemData ItemOID="EX.EXENDY" Value="15"/>
      </ItemGroupData>
      <ItemGroupData data:ItemGroupDataSeq="25" ItemGroupOID="EX">
         <ItemData ItemOID="EX.STUDYID" Value="CDISCPILOT01"/>
         <ItemData ItemOID="EX.DOMAIN" Value="EX"/>
         <ItemData ItemOID="EX.USUBJID" Value="01-701-1130"/>
         <ItemData ItemOID="EX.EXSEQ" Value="2"/>
         <ItemData ItemOID="EX.EXTRT" Value="PLACEBO"/>
         <ItemData ItemOID="EX.EXDOSE" Value="0"/>
         <ItemData ItemOID="EX.EXDOSU" Value="mg"/>
         <ItemData ItemOID="EX.EXDOSFRM" Value="PATCH"/>
         <ItemData ItemOID="EX.EXDOSFRQ" Value="QD"/>
         <ItemData ItemOID="EX.EXROUTE" Value="TRANSDERMAL"/>
         <ItemData ItemOID="EX.VISITNUM" Value="4"/>
         <ItemData ItemOID="EX.VISIT" Value="WEEK 2"/>
         <ItemData ItemOID="EX.VISITDY" Value="14"/>
         <ItemData ItemOID="EX.EXSTDTC" Value="2014-03-02"/>
         <ItemData ItemOID="EX.EXENDTC" Value="2014-08-02"/>
         <ItemData ItemOID="EX.EXSTDY" Value="16"/>
         <ItemData ItemOID="EX.EXENDY" Value="169"/>
      </ItemGroupData>
      <ItemGroupData data:ItemGroupDataSeq="26" ItemGroupOID="EX">
         <ItemData ItemOID="EX.STUDYID" Value="CDISCPILOT01"/>
         <ItemData ItemOID="EX.DOMAIN" Value="EX"/>
         <ItemData ItemOID="EX.USUBJID" Value="01-701-1130"/>
         <ItemData ItemOID="EX.EXSEQ" Value="3"/>
         <ItemData ItemOID="EX.EXTRT" Value="PLACEBO"/>
         <ItemData ItemOID="EX.EXDOSE" Value="0"/>
         <ItemData ItemOID="EX.EXDOSU" Value="mg"/>
         <ItemData ItemOID="EX.EXDOSFRM" Value="PATCH"/>
         <ItemData ItemOID="EX.EXDOSFRQ" Value="QD"/>
         <ItemData ItemOID="EX.EXROUTE" Value="TRANSDERMAL"/>
         <ItemData ItemOID="EX.VISITNUM" Value="12"/>
         <ItemData ItemOID="EX.VISIT" Value="WEEK 24"/>
         <ItemData ItemOID="EX.VISITDY" Value="168"/>
         <ItemData ItemOID="EX.EXSTDTC" Value="2014-08-03"/>
         <ItemData ItemOID="EX.EXENDTC" Value="2014-08-16"/>
         <ItemData ItemOID="EX.EXSTDY" Value="170"/>
         <ItemData ItemOID="EX.EXENDY" Value="183"/>
      </ItemGroupData>
      <ItemGroupData data:ItemGroupDataSeq="27" ItemGroupOID="EX">
         <ItemData ItemOID="EX.STUDYID" Value="CDISCPILOT01"/>
         <ItemData ItemOID="EX.DOMAIN" Value="EX"/>
         <ItemData ItemOID="EX.USUBJID" Value="01-701-1133"/>
         <ItemData ItemOID="EX.EXSEQ" Value="1"/>
         <ItemData ItemOID="EX.EXTRT" Value="XANOMELINE"/>
         <ItemData ItemOID="EX.EXDOSE" Value="54"/>
         <ItemData ItemOID="EX.EXDOSU" Value="mg"/>
         <ItemData ItemOID="EX.EXDOSFRM" Value="PATCH"/>
         <ItemData ItemOID="EX.EXDOSFRQ" Value="QD"/>
         <ItemData ItemOID="EX.EXROUTE" Value="TRANSDERMAL"/>
         <ItemData ItemOID="EX.VISITNUM" Value="3"/>
         <ItemData ItemOID="EX.VISIT" Value="BASELINE"/>
         <ItemData ItemOID="EX.VISITDY" Value="1"/>
         <ItemData ItemOID="EX.EXSTDTC" Value="2012-10-28"/>
         <ItemData ItemOID="EX.EXENDTC" Value="2012-11-12"/>
         <ItemData ItemOID="EX.EXSTDY" Value="1"/>
         <ItemData ItemOID="EX.EXENDY" Value="16"/>
      </ItemGroupData>
      <ItemGroupData data:ItemGroupDataSeq="28" ItemGroupOID="EX">
         <ItemData ItemOID="EX.STUDYID" Value="CDISCPILOT01"/>
         <ItemData ItemOID="EX.DOMAIN" Value="EX"/>
         <ItemData ItemOID="EX.USUBJID" Value="01-701-1133"/>
         <ItemData ItemOID="EX.EXSEQ" Value="2"/>
         <ItemData ItemOID="EX.EXTRT" Value="XANOMELINE"/>
         <ItemData ItemOID="EX.EXDOSE" Value="81"/>
         <ItemData ItemOID="EX.EXDOSU" Value="mg"/>
         <ItemData ItemOID="EX.EXDOSFRM" Value="PATCH"/>
         <ItemData ItemOID="EX.EXDOSFRQ" Value="QD"/>
         <ItemData ItemOID="EX.EXROUTE" Value="TRANSDERMAL"/>
         <ItemData ItemOID="EX.VISITNUM" Value="4"/>
         <ItemData ItemOID="EX.VISIT" Value="WEEK 2"/>
         <ItemData ItemOID="EX.VISITDY" Value="14"/>
         <ItemData ItemOID="EX.EXSTDTC" Value="2012-11-13"/>
         <ItemData ItemOID="EX.EXENDTC" Value="2013-04-18"/>
         <ItemData ItemOID="EX.EXSTDY" Value="17"/>
         <ItemData ItemOID="EX.EXENDY" Value="173"/>
      </ItemGroupData>
      <ItemGroupData data:ItemGroupDataSeq="29" ItemGroupOID="EX">
         <ItemData ItemOID="EX.STUDYID" Value="CDISCPILOT01"/>
         <ItemData ItemOID="EX.DOMAIN" Value="EX"/>
         <ItemData ItemOID="EX.USUBJID" Value="01-701-1133"/>
         <ItemData ItemOID="EX.EXSEQ" Value="3"/>
         <ItemData ItemOID="EX.EXTRT" Value="XANOMELINE"/>
         <ItemData ItemOID="EX.EXDOSE" Value="54"/>
         <ItemData ItemOID="EX.EXDOSU" Value="mg"/>
         <ItemData ItemOID="EX.EXDOSFRM" Value="PATCH"/>
         <ItemData ItemOID="EX.EXDOSFRQ" Value="QD"/>
         <ItemData ItemOID="EX.EXROUTE" Value="TRANSDERMAL"/>
         <ItemData ItemOID="EX.VISITNUM" Value="12"/>
         <ItemData ItemOID="EX.VISIT" Value="WEEK 24"/>
         <ItemData ItemOID="EX.VISITDY" Value="168"/>
         <ItemData ItemOID="EX.EXSTDTC" Value="2013-04-19"/>
         <ItemData ItemOID="EX.EXENDTC" Value="2013-04-28"/>
         <ItemData ItemOID="EX.EXSTDY" Value="174"/>
         <ItemData ItemOID="EX.EXENDY" Value="183"/>
      </ItemGroupData>
      <ItemGroupData data:ItemGroupDataSeq="30" ItemGroupOID="EX">
         <ItemData ItemOID="EX.STUDYID" Value="CDISCPILOT01"/>
         <ItemData ItemOID="EX.DOMAIN" Value="EX"/>
         <ItemData ItemOID="EX.USUBJID" Value="01-701-1146"/>
         <ItemData ItemOID="EX.EXSEQ" Value="1"/>
         <ItemData ItemOID="EX.EXTRT" Value="XANOMELINE"/>
         <ItemData ItemOID="EX.EXDOSE" Value="54"/>
         <ItemData ItemOID="EX.EXDOSU" Value="mg"/>
         <ItemData ItemOID="EX.EXDOSFRM" Value="PATCH"/>
         <ItemData ItemOID="EX.EXDOSFRQ" Value="QD"/>
         <ItemData ItemOID="EX.EXROUTE" Value="TRANSDERMAL"/>
         <ItemData ItemOID="EX.VISITNUM" Value="3"/>
         <ItemData ItemOID="EX.VISIT" Value="BASELINE"/>
         <ItemData ItemOID="EX.VISITDY" Value="1"/>
         <ItemData ItemOID="EX.EXSTDTC" Value="2013-05-20"/>
         <ItemData ItemOID="EX.EXENDTC" Value="2013-06-03"/>
         <ItemData ItemOID="EX.EXSTDY" Value="1"/>
         <ItemData ItemOID="EX.EXENDY" Value="15"/>
      </ItemGroupData>
      <ItemGroupData data:ItemGroupDataSeq="31" ItemGroupOID="EX">
         <ItemData ItemOID="EX.STUDYID" Value="CDISCPILOT01"/>
         <ItemData ItemOID="EX.DOMAIN" Value="EX"/>
         <ItemData ItemOID="EX.USUBJID" Value="01-701-1146"/>
         <ItemData ItemOID="EX.EXSEQ" Value="2"/>
         <ItemData ItemOID="EX.EXTRT" Value="XANOMELINE"/>
         <ItemData ItemOID="EX.EXDOSE" Value="81"/>
         <ItemData ItemOID="EX.EXDOSU" Value="mg"/>
         <ItemData ItemOID="EX.EXDOSFRM" Value="PATCH"/>
         <ItemData ItemOID="EX.EXDOSFRQ" Value="QD"/>
         <ItemData ItemOID="EX.EXROUTE" Value="TRANSDERMAL"/>
         <ItemData ItemOID="EX.VISITNUM" Value="4"/>
         <ItemData ItemOID="EX.VISIT" Value="WEEK 2"/>
         <ItemData ItemOID="EX.VISITDY" Value="14"/>
         <ItemData ItemOID="EX.EXSTDTC" Value="2013-06-04"/>
         <ItemData ItemOID="EX.EXENDTC" Value="2013-06-26"/>
         <ItemData ItemOID="EX.EXSTDY" Value="16"/>
         <ItemData ItemOID="EX.EXENDY" Value="38"/>
      </ItemGroupData>
      <ItemGroupData data:ItemGroupDataSeq="32" ItemGroupOID="EX">
         <ItemData ItemOID="EX.STUDYID" Value="CDISCPILOT01"/>
         <ItemData ItemOID="EX.DOMAIN" Value="EX"/>
         <ItemData ItemOID="EX.USUBJID" Value="01-701-1148"/>
         <ItemData ItemOID="EX.EXSEQ" Value="1"/>
         <ItemData ItemOID="EX.EXTRT" Value="XANOMELINE"/>
         <ItemData ItemOID="EX.EXDOSE" Value="54"/>
         <ItemData ItemOID="EX.EXDOSU" Value="mg"/>
         <ItemData ItemOID="EX.EXDOSFRM" Value="PATCH"/>
         <ItemData ItemOID="EX.EXDOSFRQ" Value="QD"/>
         <ItemData ItemOID="EX.EXROUTE" Value="TRANSDERMAL"/>
         <ItemData ItemOID="EX.VISITNUM" Value="3"/>
         <ItemData ItemOID="EX.VISIT" Value="BASELINE"/>
         <ItemData ItemOID="EX.VISITDY" Value="1"/>
         <ItemData ItemOID="EX.EXSTDTC" Value="2013-08-23"/>
         <ItemData ItemOID="EX.EXENDTC" Value="2013-09-05"/>
         <ItemData ItemOID="EX.EXSTDY" Value="1"/>
         <ItemData ItemOID="EX.EXENDY" Value="14"/>
      </ItemGroupData>
      <ItemGroupData data:ItemGroupDataSeq="33" ItemGroupOID="EX">
         <ItemData ItemOID="EX.STUDYID" Value="CDISCPILOT01"/>
         <ItemData ItemOID="EX.DOMAIN" Value="EX"/>
         <ItemData ItemOID="EX.USUBJID" Value="01-701-1148"/>
         <ItemData ItemOID="EX.EXSEQ" Value="2"/>
         <ItemData ItemOID="EX.EXTRT" Value="XANOMELINE"/>
         <ItemData ItemOID="EX.EXDOSE" Value="81"/>
         <ItemData ItemOID="EX.EXDOSU" Value="mg"/>
         <ItemData ItemOID="EX.EXDOSFRM" Value="PATCH"/>
         <ItemData ItemOID="EX.EXDOSFRQ" Value="QD"/>
         <ItemData ItemOID="EX.EXROUTE" Value="TRANSDERMAL"/>
         <ItemData ItemOID="EX.VISITNUM" Value="4"/>
         <ItemData ItemOID="EX.VISIT" Value="WEEK 2"/>
         <ItemData ItemOID="EX.VISITDY" Value="14"/>
         <ItemData ItemOID="EX.EXSTDTC" Value="2013-09-06"/>
         <ItemData ItemOID="EX.EXENDTC" Value="2014-02-08"/>
         <ItemData ItemOID="EX.EXSTDY" Value="15"/>
         <ItemData ItemOID="EX.EXENDY" Value="170"/>
      </ItemGroupData>
      <ItemGroupData data:ItemGroupDataSeq="34" ItemGroupOID="EX">
         <ItemData ItemOID="EX.STUDYID" Value="CDISCPILOT01"/>
         <ItemData ItemOID="EX.DOMAIN" Value="EX"/>
         <ItemData ItemOID="EX.USUBJID" Value="01-701-1148"/>
         <ItemData ItemOID="EX.EXSEQ" Value="3"/>
         <ItemData ItemOID="EX.EXTRT" Value="XANOMELINE"/>
         <ItemData ItemOID="EX.EXDOSE" Value="54"/>
         <ItemData ItemOID="EX.EXDOSU" Value="mg"/>
         <ItemData ItemOID="EX.EXDOSFRM" Value="PATCH"/>
         <ItemData ItemOID="EX.EXDOSFRQ" Value="QD"/>
         <ItemData ItemOID="EX.EXROUTE" Value="TRANSDERMAL"/>
         <ItemData ItemOID="EX.VISITNUM" Value="12"/>
         <ItemData ItemOID="EX.VISIT" Value="WEEK 24"/>
         <ItemData ItemOID="EX.VISITDY" Value="168"/>
         <ItemData ItemOID="EX.EXSTDTC" Value="2014-02-09"/>
         <ItemData ItemOID="EX.EXENDTC" Value="2014-02-20"/>
         <ItemData ItemOID="EX.EXSTDY" Value="171"/>
         <ItemData ItemOID="EX.EXENDY" Value="182"/>
      </ItemGroupData>
      <ItemGroupData data:ItemGroupDataSeq="35" ItemGroupOID="EX">
         <ItemData ItemOID="EX.STUDYID" Value="CDISCPILOT01"/>
         <ItemData ItemOID="EX.DOMAIN" Value="EX"/>
         <ItemData ItemOID="EX.USUBJID" Value="01-701-1153"/>
         <ItemData ItemOID="EX.EXSEQ" Value="1"/>
         <ItemData ItemOID="EX.EXTRT" Value="PLACEBO"/>
         <ItemData ItemOID="EX.EXDOSE" Value="0"/>
         <ItemData ItemOID="EX.EXDOSU" Value="mg"/>
         <ItemData ItemOID="EX.EXDOSFRM" Value="PATCH"/>
         <ItemData ItemOID="EX.EXDOSFRQ" Value="QD"/>
         <ItemData ItemOID="EX.EXROUTE" Value="TRANSDERMAL"/>
         <ItemData ItemOID="EX.VISITNUM" Value="3"/>
         <ItemData ItemOID="EX.VISIT" Value="BASELINE"/>
         <ItemData ItemOID="EX.VISITDY" Value="1"/>
         <ItemData ItemOID="EX.EXSTDTC" Value="2013-09-23"/>
         <ItemData ItemOID="EX.EXENDTC" Value="2013-10-08"/>
         <ItemData ItemOID="EX.EXSTDY" Value="1"/>
         <ItemData ItemOID="EX.EXENDY" Value="16"/>
      </ItemGroupData>
      <ItemGroupData data:ItemGroupDataSeq="36" ItemGroupOID="EX">
         <ItemData ItemOID="EX.STUDYID" Value="CDISCPILOT01"/>
         <ItemData ItemOID="EX.DOMAIN" Value="EX"/>
         <ItemData ItemOID="EX.USUBJID" Value="01-701-1153"/>
         <ItemData ItemOID="EX.EXSEQ" Value="2"/>
         <ItemData ItemOID="EX.EXTRT" Value="PLACEBO"/>
         <ItemData ItemOID="EX.EXDOSE" Value="0"/>
         <ItemData ItemOID="EX.EXDOSU" Value="mg"/>
         <ItemData ItemOID="EX.EXDOSFRM" Value="PATCH"/>
         <ItemData ItemOID="EX.EXDOSFRQ" Value="QD"/>
         <ItemData ItemOID="EX.EXROUTE" Value="TRANSDERMAL"/>
         <ItemData ItemOID="EX.VISITNUM" Value="4"/>
         <ItemData ItemOID="EX.VISIT" Value="WEEK 2"/>
         <ItemData ItemOID="EX.VISITDY" Value="14"/>
         <ItemData ItemOID="EX.EXSTDTC" Value="2013-10-09"/>
         <ItemData ItemOID="EX.EXENDTC" Value="2014-03-11"/>
         <ItemData ItemOID="EX.EXSTDY" Value="17"/>
         <ItemData ItemOID="EX.EXENDY" Value="170"/>
      </ItemGroupData>
      <ItemGroupData data:ItemGroupDataSeq="37" ItemGroupOID="EX">
         <ItemData ItemOID="EX.STUDYID" Value="CDISCPILOT01"/>
         <ItemData ItemOID="EX.DOMAIN" Value="EX"/>
         <ItemData ItemOID="EX.USUBJID" Value="01-701-1153"/>
         <ItemData ItemOID="EX.EXSEQ" Value="3"/>
         <ItemData ItemOID="EX.EXTRT" Value="PLACEBO"/>
         <ItemData ItemOID="EX.EXDOSE" Value="0"/>
         <ItemData ItemOID="EX.EXDOSU" Value="mg"/>
         <ItemData ItemOID="EX.EXDOSFRM" Value="PATCH"/>
         <ItemData ItemOID="EX.EXDOSFRQ" Value="QD"/>
         <ItemData ItemOID="EX.EXROUTE" Value="TRANSDERMAL"/>
         <ItemData ItemOID="EX.VISITNUM" Value="12"/>
         <ItemData ItemOID="EX.VISIT" Value="WEEK 24"/>
         <ItemData ItemOID="EX.VISITDY" Value="168"/>
         <ItemData ItemOID="EX.EXSTDTC" Value="2014-03-12"/>
         <ItemData ItemOID="EX.EXENDTC" Value="2014-03-16"/>
         <ItemData ItemOID="EX.EXSTDY" Value="171"/>
         <ItemData ItemOID="EX.EXENDY" Value="175"/>
      </ItemGroupData>
      <ItemGroupData data:ItemGroupDataSeq="38" ItemGroupOID="EX">
         <ItemData ItemOID="EX.STUDYID" Value="CDISCPILOT01"/>
         <ItemData ItemOID="EX.DOMAIN" Value="EX"/>
         <ItemData ItemOID="EX.USUBJID" Value="01-701-1180"/>
         <ItemData ItemOID="EX.EXSEQ" Value="1"/>
         <ItemData ItemOID="EX.EXTRT" Value="XANOMELINE"/>
         <ItemData ItemOID="EX.EXDOSE" Value="54"/>
         <ItemData ItemOID="EX.EXDOSU" Value="mg"/>
         <ItemData ItemOID="EX.EXDOSFRM" Value="PATCH"/>
         <ItemData ItemOID="EX.EXDOSFRQ" Value="QD"/>
         <ItemData ItemOID="EX.EXROUTE" Value="TRANSDERMAL"/>
         <ItemData ItemOID="EX.VISITNUM" Value="3"/>
         <ItemData ItemOID="EX.VISIT" Value="BASELINE"/>
         <ItemData ItemOID="EX.VISITDY" Value="1"/>
         <ItemData ItemOID="EX.EXSTDTC" Value="2013-02-12"/>
         <ItemData ItemOID="EX.EXENDTC" Value="2013-02-25"/>
         <ItemData ItemOID="EX.EXSTDY" Value="1"/>
         <ItemData ItemOID="EX.EXENDY" Value="14"/>
      </ItemGroupData>
      <ItemGroupData data:ItemGroupDataSeq="39" ItemGroupOID="EX">
         <ItemData ItemOID="EX.STUDYID" Value="CDISCPILOT01"/>
         <ItemData ItemOID="EX.DOMAIN" Value="EX"/>
         <ItemData ItemOID="EX.USUBJID" Value="01-701-1180"/>
         <ItemData ItemOID="EX.EXSEQ" Value="2"/>
         <ItemData ItemOID="EX.EXTRT" Value="XANOMELINE"/>
         <ItemData ItemOID="EX.EXDOSE" Value="81"/>
         <ItemData ItemOID="EX.EXDOSU" Value="mg"/>
         <ItemData ItemOID="EX.EXDOSFRM" Value="PATCH"/>
         <ItemData ItemOID="EX.EXDOSFRQ" Value="QD"/>
         <ItemData ItemOID="EX.EXROUTE" Value="TRANSDERMAL"/>
         <ItemData ItemOID="EX.VISITNUM" Value="4"/>
         <ItemData ItemOID="EX.VISIT" Value="WEEK 2"/>
         <ItemData ItemOID="EX.VISITDY" Value="14"/>
         <ItemData ItemOID="EX.EXSTDTC" Value="2013-02-26"/>
         <ItemData ItemOID="EX.EXENDTC" Value="2013-03-18"/>
         <ItemData ItemOID="EX.EXSTDY" Value="15"/>
         <ItemData ItemOID="EX.EXENDY" Value="35"/>
      </ItemGroupData>
      <ItemGroupData data:ItemGroupDataSeq="40" ItemGroupOID="EX">
         <ItemData ItemOID="EX.STUDYID" Value="CDISCPILOT01"/>
         <ItemData ItemOID="EX.DOMAIN" Value="EX"/>
         <ItemData ItemOID="EX.USUBJID" Value="01-701-1181"/>
         <ItemData ItemOID="EX.EXSEQ" Value="1"/>
         <ItemData ItemOID="EX.EXTRT" Value="XANOMELINE"/>
         <ItemData ItemOID="EX.EXDOSE" Value="54"/>
         <ItemData ItemOID="EX.EXDOSU" Value="mg"/>
         <ItemData ItemOID="EX.EXDOSFRM" Value="PATCH"/>
         <ItemData ItemOID="EX.EXDOSFRQ" Value="QD"/>
         <ItemData ItemOID="EX.EXROUTE" Value="TRANSDERMAL"/>
         <ItemData ItemOID="EX.VISITNUM" Value="3"/>
         <ItemData ItemOID="EX.VISIT" Value="BASELINE"/>
         <ItemData ItemOID="EX.VISITDY" Value="1"/>
         <ItemData ItemOID="EX.EXSTDTC" Value="2013-12-05"/>
         <ItemData ItemOID="EX.EXENDTC" Value="2013-12-09"/>
         <ItemData ItemOID="EX.EXSTDY" Value="1"/>
         <ItemData ItemOID="EX.EXENDY" Value="5"/>
      </ItemGroupData>
      <ItemGroupData data:ItemGroupDataSeq="41" ItemGroupOID="EX">
         <ItemData ItemOID="EX.STUDYID" Value="CDISCPILOT01"/>
         <ItemData ItemOID="EX.DOMAIN" Value="EX"/>
         <ItemData ItemOID="EX.USUBJID" Value="01-701-1188"/>
         <ItemData ItemOID="EX.EXSEQ" Value="1"/>
         <ItemData ItemOID="EX.EXTRT" Value="XANOMELINE"/>
         <ItemData ItemOID="EX.EXDOSE" Value="54"/>
         <ItemData ItemOID="EX.EXDOSU" Value="mg"/>
         <ItemData ItemOID="EX.EXDOSFRM" Value="PATCH"/>
         <ItemData ItemOID="EX.EXDOSFRQ" Value="QD"/>
         <ItemData ItemOID="EX.EXROUTE" Value="TRANSDERMAL"/>
         <ItemData ItemOID="EX.VISITNUM" Value="3"/>
         <ItemData ItemOID="EX.VISIT" Value="BASELINE"/>
         <ItemData ItemOID="EX.VISITDY" Value="1"/>
         <ItemData ItemOID="EX.EXSTDTC" Value="2013-02-15"/>
         <ItemData ItemOID="EX.EXENDTC" Value="2013-03-02"/>
         <ItemData ItemOID="EX.EXSTDY" Value="1"/>
         <ItemData ItemOID="EX.EXENDY" Value="16"/>
      </ItemGroupData>
      <ItemGroupData data:ItemGroupDataSeq="42" ItemGroupOID="EX">
         <ItemData ItemOID="EX.STUDYID" Value="CDISCPILOT01"/>
         <ItemData ItemOID="EX.DOMAIN" Value="EX"/>
         <ItemData ItemOID="EX.USUBJID" Value="01-701-1188"/>
         <ItemData ItemOID="EX.EXSEQ" Value="2"/>
         <ItemData ItemOID="EX.EXTRT" Value="XANOMELINE"/>
         <ItemData ItemOID="EX.EXDOSE" Value="54"/>
         <ItemData ItemOID="EX.EXDOSU" Value="mg"/>
         <ItemData ItemOID="EX.EXDOSFRM" Value="PATCH"/>
         <ItemData ItemOID="EX.EXDOSFRQ" Value="QD"/>
         <ItemData ItemOID="EX.EXROUTE" Value="TRANSDERMAL"/>
         <ItemData ItemOID="EX.VISITNUM" Value="4"/>
         <ItemData ItemOID="EX.VISIT" Value="WEEK 2"/>
         <ItemData ItemOID="EX.VISITDY" Value="14"/>
         <ItemData ItemOID="EX.EXSTDTC" Value="2013-03-03"/>
         <ItemData ItemOID="EX.EXENDTC" Value="2013-03-24"/>
         <ItemData ItemOID="EX.EXSTDY" Value="17"/>
         <ItemData ItemOID="EX.EXENDY" Value="38"/>
      </ItemGroupData>
      <ItemGroupData data:ItemGroupDataSeq="43" ItemGroupOID="EX">
         <ItemData ItemOID="EX.STUDYID" Value="CDISCPILOT01"/>
         <ItemData ItemOID="EX.DOMAIN" Value="EX"/>
         <ItemData ItemOID="EX.USUBJID" Value="01-701-1192"/>
         <ItemData ItemOID="EX.EXSEQ" Value="1"/>
         <ItemData ItemOID="EX.EXTRT" Value="XANOMELINE"/>
         <ItemData ItemOID="EX.EXDOSE" Value="54"/>
         <ItemData ItemOID="EX.EXDOSU" Value="mg"/>
         <ItemData ItemOID="EX.EXDOSFRM" Value="PATCH"/>
         <ItemData ItemOID="EX.EXDOSFRQ" Value="QD"/>
         <ItemData ItemOID="EX.EXROUTE" Value="TRANSDERMAL"/>
         <ItemData ItemOID="EX.VISITNUM" Value="3"/>
         <ItemData ItemOID="EX.VISIT" Value="BASELINE"/>
         <ItemData ItemOID="EX.VISITDY" Value="1"/>
         <ItemData ItemOID="EX.EXSTDTC" Value="2012-07-22"/>
         <ItemData ItemOID="EX.EXENDTC" Value="2012-08-07"/>
         <ItemData ItemOID="EX.EXSTDY" Value="1"/>
         <ItemData ItemOID="EX.EXENDY" Value="17"/>
      </ItemGroupData>
      <ItemGroupData data:ItemGroupDataSeq="44" ItemGroupOID="EX">
         <ItemData ItemOID="EX.STUDYID" Value="CDISCPILOT01"/>
         <ItemData ItemOID="EX.DOMAIN" Value="EX"/>
         <ItemData ItemOID="EX.USUBJID" Value="01-701-1192"/>
         <ItemData ItemOID="EX.EXSEQ" Value="2"/>
         <ItemData ItemOID="EX.EXTRT" Value="XANOMELINE"/>
         <ItemData ItemOID="EX.EXDOSE" Value="54"/>
         <ItemData ItemOID="EX.EXDOSU" Value="mg"/>
         <ItemData ItemOID="EX.EXDOSFRM" Value="PATCH"/>
         <ItemData ItemOID="EX.EXDOSFRQ" Value="QD"/>
         <ItemData ItemOID="EX.EXROUTE" Value="TRANSDERMAL"/>
         <ItemData ItemOID="EX.VISITNUM" Value="4"/>
         <ItemData ItemOID="EX.VISIT" Value="WEEK 2"/>
         <ItemData ItemOID="EX.VISITDY" Value="14"/>
         <ItemData ItemOID="EX.EXSTDTC" Value="2012-08-08"/>
         <ItemData ItemOID="EX.EXENDTC" Value="2013-01-11"/>
         <ItemData ItemOID="EX.EXSTDY" Value="18"/>
         <ItemData ItemOID="EX.EXENDY" Value="174"/>
      </ItemGroupData>
      <ItemGroupData data:ItemGroupDataSeq="45" ItemGroupOID="EX">
         <ItemData ItemOID="EX.STUDYID" Value="CDISCPILOT01"/>
         <ItemData ItemOID="EX.DOMAIN" Value="EX"/>
         <ItemData ItemOID="EX.USUBJID" Value="01-701-1192"/>
         <ItemData ItemOID="EX.EXSEQ" Value="3"/>
         <ItemData ItemOID="EX.EXTRT" Value="XANOMELINE"/>
         <ItemData ItemOID="EX.EXDOSE" Value="54"/>
         <ItemData ItemOID="EX.EXDOSU" Value="mg"/>
         <ItemData ItemOID="EX.EXDOSFRM" Value="PATCH"/>
         <ItemData ItemOID="EX.EXDOSFRQ" Value="QD"/>
         <ItemData ItemOID="EX.EXROUTE" Value="TRANSDERMAL"/>
         <ItemData ItemOID="EX.VISITNUM" Value="12"/>
         <ItemData ItemOID="EX.VISIT" Value="WEEK 24"/>
         <ItemData ItemOID="EX.VISITDY" Value="168"/>
         <ItemData ItemOID="EX.EXSTDTC" Value="2013-01-12"/>
         <ItemData ItemOID="EX.EXENDTC" Value="2013-01-20"/>
         <ItemData ItemOID="EX.EXSTDY" Value="175"/>
         <ItemData ItemOID="EX.EXENDY" Value="183"/>
      </ItemGroupData>
      <ItemGroupData data:ItemGroupDataSeq="46" ItemGroupOID="EX">
         <ItemData ItemOID="EX.STUDYID" Value="CDISCPILOT01"/>
         <ItemData ItemOID="EX.DOMAIN" Value="EX"/>
         <ItemData ItemOID="EX.USUBJID" Value="01-701-1203"/>
         <ItemData ItemOID="EX.EXSEQ" Value="1"/>
         <ItemData ItemOID="EX.EXTRT" Value="PLACEBO"/>
         <ItemData ItemOID="EX.EXDOSE" Value="0"/>
         <ItemData ItemOID="EX.EXDOSU" Value="mg"/>
         <ItemData ItemOID="EX.EXDOSFRM" Value="PATCH"/>
         <ItemData ItemOID="EX.EXDOSFRQ" Value="QD"/>
         <ItemData ItemOID="EX.EXROUTE" Value="TRANSDERMAL"/>
         <ItemData ItemOID="EX.VISITNUM" Value="3"/>
         <ItemData ItemOID="EX.VISIT" Value="BASELINE"/>
         <ItemData ItemOID="EX.VISITDY" Value="1"/>
         <ItemData ItemOID="EX.EXSTDTC" Value="2013-02-02"/>
         <ItemData ItemOID="EX.EXENDTC" Value="2013-02-23"/>
         <ItemData ItemOID="EX.EXSTDY" Value="1"/>
         <ItemData ItemOID="EX.EXENDY" Value="22"/>
      </ItemGroupData>
      <ItemGroupData data:ItemGroupDataSeq="47" ItemGroupOID="EX">
         <ItemData ItemOID="EX.STUDYID" Value="CDISCPILOT01"/>
         <ItemData ItemOID="EX.DOMAIN" Value="EX"/>
         <ItemData ItemOID="EX.USUBJID" Value="01-701-1203"/>
         <ItemData ItemOID="EX.EXSEQ" Value="2"/>
         <ItemData ItemOID="EX.EXTRT" Value="PLACEBO"/>
         <ItemData ItemOID="EX.EXDOSE" Value="0"/>
         <ItemData ItemOID="EX.EXDOSU" Value="mg"/>
         <ItemData ItemOID="EX.EXDOSFRM" Value="PATCH"/>
         <ItemData ItemOID="EX.EXDOSFRQ" Value="QD"/>
         <ItemData ItemOID="EX.EXROUTE" Value="TRANSDERMAL"/>
         <ItemData ItemOID="EX.VISITNUM" Value="4"/>
         <ItemData ItemOID="EX.VISIT" Value="WEEK 2"/>
         <ItemData ItemOID="EX.VISITDY" Value="14"/>
         <ItemData ItemOID="EX.EXSTDTC" Value="2013-02-24"/>
         <ItemData ItemOID="EX.EXENDTC" Value="2013-07-22"/>
         <ItemData ItemOID="EX.EXSTDY" Value="23"/>
         <ItemData ItemOID="EX.EXENDY" Value="171"/>
      </ItemGroupData>
      <ItemGroupData data:ItemGroupDataSeq="48" ItemGroupOID="EX">
         <ItemData ItemOID="EX.STUDYID" Value="CDISCPILOT01"/>
         <ItemData ItemOID="EX.DOMAIN" Value="EX"/>
         <ItemData ItemOID="EX.USUBJID" Value="01-701-1203"/>
         <ItemData ItemOID="EX.EXSEQ" Value="3"/>
         <ItemData ItemOID="EX.EXTRT" Value="PLACEBO"/>
         <ItemData ItemOID="EX.EXDOSE" Value="0"/>
         <ItemData ItemOID="EX.EXDOSU" Value="mg"/>
         <ItemData ItemOID="EX.EXDOSFRM" Value="PATCH"/>
         <ItemData ItemOID="EX.EXDOSFRQ" Value="QD"/>
         <ItemData ItemOID="EX.EXROUTE" Value="TRANSDERMAL"/>
         <ItemData ItemOID="EX.VISITNUM" Value="12"/>
         <ItemData ItemOID="EX.VISIT" Value="WEEK 24"/>
         <ItemData ItemOID="EX.VISITDY" Value="168"/>
         <ItemData ItemOID="EX.EXSTDTC" Value="2013-07-23"/>
         <ItemData ItemOID="EX.EXENDTC" Value="2013-08-03"/>
         <ItemData ItemOID="EX.EXSTDY" Value="172"/>
         <ItemData ItemOID="EX.EXENDY" Value="183"/>
      </ItemGroupData>
      <ItemGroupData data:ItemGroupDataSeq="49" ItemGroupOID="EX">
         <ItemData ItemOID="EX.STUDYID" Value="CDISCPILOT01"/>
         <ItemData ItemOID="EX.DOMAIN" Value="EX"/>
         <ItemData ItemOID="EX.USUBJID" Value="01-701-1211"/>
         <ItemData ItemOID="EX.EXSEQ" Value="1"/>
         <ItemData ItemOID="EX.EXTRT" Value="XANOMELINE"/>
         <ItemData ItemOID="EX.EXDOSE" Value="54"/>
         <ItemData ItemOID="EX.EXDOSU" Value="mg"/>
         <ItemData ItemOID="EX.EXDOSFRM" Value="PATCH"/>
         <ItemData ItemOID="EX.EXDOSFRQ" Value="QD"/>
         <ItemData ItemOID="EX.EXROUTE" Value="TRANSDERMAL"/>
         <ItemData ItemOID="EX.VISITNUM" Value="3"/>
         <ItemData ItemOID="EX.VISIT" Value="BASELINE"/>
         <ItemData ItemOID="EX.VISITDY" Value="1"/>
         <ItemData ItemOID="EX.EXSTDTC" Value="2012-11-15"/>
         <ItemData ItemOID="EX.EXENDTC" Value="2012-11-28"/>
         <ItemData ItemOID="EX.EXSTDY" Value="1"/>
         <ItemData ItemOID="EX.EXENDY" Value="14"/>
      </ItemGroupData>
      <ItemGroupData data:ItemGroupDataSeq="50" ItemGroupOID="EX">
         <ItemData ItemOID="EX.STUDYID" Value="CDISCPILOT01"/>
         <ItemData ItemOID="EX.DOMAIN" Value="EX"/>
         <ItemData ItemOID="EX.USUBJID" Value="01-701-1211"/>
         <ItemData ItemOID="EX.EXSEQ" Value="2"/>
         <ItemData ItemOID="EX.EXTRT" Value="XANOMELINE"/>
         <ItemData ItemOID="EX.EXDOSE" Value="54"/>
         <ItemData ItemOID="EX.EXDOSU" Value="mg"/>
         <ItemData ItemOID="EX.EXDOSFRM" Value="PATCH"/>
         <ItemData ItemOID="EX.EXDOSFRQ" Value="QD"/>
         <ItemData ItemOID="EX.EXROUTE" Value="TRANSDERMAL"/>
         <ItemData ItemOID="EX.VISITNUM" Value="4"/>
         <ItemData ItemOID="EX.VISIT" Value="WEEK 2"/>
         <ItemData ItemOID="EX.VISITDY" Value="14"/>
         <ItemData ItemOID="EX.EXSTDTC" Value="2012-11-29"/>
         <ItemData ItemOID="EX.EXENDTC" Value="2013-01-12"/>
         <ItemData ItemOID="EX.EXSTDY" Value="15"/>
         <ItemData ItemOID="EX.EXENDY" Value="59"/>
      </ItemGroupData>
      <ItemGroupData data:ItemGroupDataSeq="51" ItemGroupOID="EX">
         <ItemData ItemOID="EX.STUDYID" Value="CDISCPILOT01"/>
         <ItemData ItemOID="EX.DOMAIN" Value="EX"/>
         <ItemData ItemOID="EX.USUBJID" Value="01-701-1234"/>
         <ItemData ItemOID="EX.EXSEQ" Value="1"/>
         <ItemData ItemOID="EX.EXTRT" Value="PLACEBO"/>
         <ItemData ItemOID="EX.EXDOSE" Value="0"/>
         <ItemData ItemOID="EX.EXDOSU" Value="mg"/>
         <ItemData ItemOID="EX.EXDOSFRM" Value="PATCH"/>
         <ItemData ItemOID="EX.EXDOSFRQ" Value="QD"/>
         <ItemData ItemOID="EX.EXROUTE" Value="TRANSDERMAL"/>
         <ItemData ItemOID="EX.VISITNUM" Value="3"/>
         <ItemData ItemOID="EX.VISIT" Value="BASELINE"/>
         <ItemData ItemOID="EX.VISITDY" Value="1"/>
         <ItemData ItemOID="EX.EXSTDTC" Value="2013-03-30"/>
         <ItemData ItemOID="EX.EXENDTC" Value="2013-04-21"/>
         <ItemData ItemOID="EX.EXSTDY" Value="1"/>
         <ItemData ItemOID="EX.EXENDY" Value="23"/>
      </ItemGroupData>
      <ItemGroupData data:ItemGroupDataSeq="52" ItemGroupOID="EX">
         <ItemData ItemOID="EX.STUDYID" Value="CDISCPILOT01"/>
         <ItemData ItemOID="EX.DOMAIN" Value="EX"/>
         <ItemData ItemOID="EX.USUBJID" Value="01-701-1234"/>
         <ItemData ItemOID="EX.EXSEQ" Value="2"/>
         <ItemData ItemOID="EX.EXTRT" Value="PLACEBO"/>
         <ItemData ItemOID="EX.EXDOSE" Value="0"/>
         <ItemData ItemOID="EX.EXDOSU" Value="mg"/>
         <ItemData ItemOID="EX.EXDOSFRM" Value="PATCH"/>
         <ItemData ItemOID="EX.EXDOSFRQ" Value="QD"/>
         <ItemData ItemOID="EX.EXROUTE" Value="TRANSDERMAL"/>
         <ItemData ItemOID="EX.VISITNUM" Value="4"/>
         <ItemData ItemOID="EX.VISIT" Value="WEEK 2"/>
         <ItemData ItemOID="EX.VISITDY" Value="14"/>
         <ItemData ItemOID="EX.EXSTDTC" Value="2013-04-22"/>
         <ItemData ItemOID="EX.EXENDTC" Value="2013-09-10"/>
         <ItemData ItemOID="EX.EXSTDY" Value="24"/>
         <ItemData ItemOID="EX.EXENDY" Value="165"/>
      </ItemGroupData>
      <ItemGroupData data:ItemGroupDataSeq="53" ItemGroupOID="EX">
         <ItemData ItemOID="EX.STUDYID" Value="CDISCPILOT01"/>
         <ItemData ItemOID="EX.DOMAIN" Value="EX"/>
         <ItemData ItemOID="EX.USUBJID" Value="01-701-1234"/>
         <ItemData ItemOID="EX.EXSEQ" Value="3"/>
         <ItemData ItemOID="EX.EXTRT" Value="PLACEBO"/>
         <ItemData ItemOID="EX.EXDOSE" Value="0"/>
         <ItemData ItemOID="EX.EXDOSU" Value="mg"/>
         <ItemData ItemOID="EX.EXDOSFRM" Value="PATCH"/>
         <ItemData ItemOID="EX.EXDOSFRQ" Value="QD"/>
         <ItemData ItemOID="EX.EXROUTE" Value="TRANSDERMAL"/>
         <ItemData ItemOID="EX.VISITNUM" Value="12"/>
         <ItemData ItemOID="EX.VISIT" Value="WEEK 24"/>
         <ItemData ItemOID="EX.VISITDY" Value="168"/>
         <ItemData ItemOID="EX.EXSTDTC" Value="2013-09-11"/>
         <ItemData ItemOID="EX.EXENDTC" Value="2013-09-22"/>
         <ItemData ItemOID="EX.EXSTDY" Value="166"/>
         <ItemData ItemOID="EX.EXENDY" Value="177"/>
      </ItemGroupData>
      <ItemGroupData data:ItemGroupDataSeq="54" ItemGroupOID="EX">
         <ItemData ItemOID="EX.STUDYID" Value="CDISCPILOT01"/>
         <ItemData ItemOID="EX.DOMAIN" Value="EX"/>
         <ItemData ItemOID="EX.USUBJID" Value="01-701-1239"/>
         <ItemData ItemOID="EX.EXSEQ" Value="1"/>
         <ItemData ItemOID="EX.EXTRT" Value="XANOMELINE"/>
         <ItemData ItemOID="EX.EXDOSE" Value="54"/>
         <ItemData ItemOID="EX.EXDOSU" Value="mg"/>
         <ItemData ItemOID="EX.EXDOSFRM" Value="PATCH"/>
         <ItemData ItemOID="EX.EXDOSFRQ" Value="QD"/>
         <ItemData ItemOID="EX.EXROUTE" Value="TRANSDERMAL"/>
         <ItemData ItemOID="EX.VISITNUM" Value="3"/>
         <ItemData ItemOID="EX.VISIT" Value="BASELINE"/>
         <ItemData ItemOID="EX.VISITDY" Value="1"/>
         <ItemData ItemOID="EX.EXSTDTC" Value="2014-01-11"/>
         <ItemData ItemOID="EX.EXENDTC" Value="2014-01-25"/>
         <ItemData ItemOID="EX.EXSTDY" Value="1"/>
         <ItemData ItemOID="EX.EXENDY" Value="15"/>
      </ItemGroupData>
      <ItemGroupData data:ItemGroupDataSeq="55" ItemGroupOID="EX">
         <ItemData ItemOID="EX.STUDYID" Value="CDISCPILOT01"/>
         <ItemData ItemOID="EX.DOMAIN" Value="EX"/>
         <ItemData ItemOID="EX.USUBJID" Value="01-701-1239"/>
         <ItemData ItemOID="EX.EXSEQ" Value="2"/>
         <ItemData ItemOID="EX.EXTRT" Value="XANOMELINE"/>
         <ItemData ItemOID="EX.EXDOSE" Value="81"/>
         <ItemData ItemOID="EX.EXDOSU" Value="mg"/>
         <ItemData ItemOID="EX.EXDOSFRM" Value="PATCH"/>
         <ItemData ItemOID="EX.EXDOSFRQ" Value="QD"/>
         <ItemData ItemOID="EX.EXROUTE" Value="TRANSDERMAL"/>
         <ItemData ItemOID="EX.VISITNUM" Value="4"/>
         <ItemData ItemOID="EX.VISIT" Value="WEEK 2"/>
         <ItemData ItemOID="EX.VISITDY" Value="14"/>
         <ItemData ItemOID="EX.EXSTDTC" Value="2014-01-26"/>
         <ItemData ItemOID="EX.EXENDTC" Value="2014-06-27"/>
         <ItemData ItemOID="EX.EXSTDY" Value="16"/>
         <ItemData ItemOID="EX.EXENDY" Value="168"/>
      </ItemGroupData>
      <ItemGroupData data:ItemGroupDataSeq="56" ItemGroupOID="EX">
         <ItemData ItemOID="EX.STUDYID" Value="CDISCPILOT01"/>
         <ItemData ItemOID="EX.DOMAIN" Value="EX"/>
         <ItemData ItemOID="EX.USUBJID" Value="01-701-1239"/>
         <ItemData ItemOID="EX.EXSEQ" Value="3"/>
         <ItemData ItemOID="EX.EXTRT" Value="XANOMELINE"/>
         <ItemData ItemOID="EX.EXDOSE" Value="54"/>
         <ItemData ItemOID="EX.EXDOSU" Value="mg"/>
         <ItemData ItemOID="EX.EXDOSFRM" Value="PATCH"/>
         <ItemData ItemOID="EX.EXDOSFRQ" Value="QD"/>
         <ItemData ItemOID="EX.EXROUTE" Value="TRANSDERMAL"/>
         <ItemData ItemOID="EX.VISITNUM" Value="12"/>
         <ItemData ItemOID="EX.VISIT" Value="WEEK 24"/>
         <ItemData ItemOID="EX.VISITDY" Value="168"/>
         <ItemData ItemOID="EX.EXSTDTC" Value="2014-06-28"/>
         <ItemData ItemOID="EX.EXENDTC" Value="2014-07-10"/>
         <ItemData ItemOID="EX.EXSTDY" Value="169"/>
         <ItemData ItemOID="EX.EXENDY" Value="181"/>
      </ItemGroupData>
      <ItemGroupData data:ItemGroupDataSeq="57" ItemGroupOID="EX">
         <ItemData ItemOID="EX.STUDYID" Value="CDISCPILOT01"/>
         <ItemData ItemOID="EX.DOMAIN" Value="EX"/>
         <ItemData ItemOID="EX.USUBJID" Value="01-701-1275"/>
         <ItemData ItemOID="EX.EXSEQ" Value="1"/>
         <ItemData ItemOID="EX.EXTRT" Value="XANOMELINE"/>
         <ItemData ItemOID="EX.EXDOSE" Value="54"/>
         <ItemData ItemOID="EX.EXDOSU" Value="mg"/>
         <ItemData ItemOID="EX.EXDOSFRM" Value="PATCH"/>
         <ItemData ItemOID="EX.EXDOSFRQ" Value="QD"/>
         <ItemData ItemOID="EX.EXROUTE" Value="TRANSDERMAL"/>
         <ItemData ItemOID="EX.VISITNUM" Value="3"/>
         <ItemData ItemOID="EX.VISIT" Value="BASELINE"/>
         <ItemData ItemOID="EX.VISITDY" Value="1"/>
         <ItemData ItemOID="EX.EXSTDTC" Value="2014-02-07"/>
         <ItemData ItemOID="EX.EXENDTC" Value="2014-02-22"/>
         <ItemData ItemOID="EX.EXSTDY" Value="1"/>
         <ItemData ItemOID="EX.EXENDY" Value="16"/>
      </ItemGroupData>
      <ItemGroupData data:ItemGroupDataSeq="58" ItemGroupOID="EX">
         <ItemData ItemOID="EX.STUDYID" Value="CDISCPILOT01"/>
         <ItemData ItemOID="EX.DOMAIN" Value="EX"/>
         <ItemData ItemOID="EX.USUBJID" Value="01-701-1275"/>
         <ItemData ItemOID="EX.EXSEQ" Value="2"/>
         <ItemData ItemOID="EX.EXTRT" Value="XANOMELINE"/>
         <ItemData ItemOID="EX.EXDOSE" Value="81"/>
         <ItemData ItemOID="EX.EXDOSU" Value="mg"/>
         <ItemData ItemOID="EX.EXDOSFRM" Value="PATCH"/>
         <ItemData ItemOID="EX.EXDOSFRQ" Value="QD"/>
         <ItemData ItemOID="EX.EXROUTE" Value="TRANSDERMAL"/>
         <ItemData ItemOID="EX.VISITNUM" Value="4"/>
         <ItemData ItemOID="EX.VISIT" Value="WEEK 2"/>
         <ItemData ItemOID="EX.VISITDY" Value="14"/>
         <ItemData ItemOID="EX.EXSTDTC" Value="2014-02-23"/>
         <ItemData ItemOID="EX.EXENDTC" Value="2014-05-31"/>
         <ItemData ItemOID="EX.EXSTDY" Value="17"/>
         <ItemData ItemOID="EX.EXENDY" Value="114"/>
      </ItemGroupData>
      <ItemGroupData data:ItemGroupDataSeq="59" ItemGroupOID="EX">
         <ItemData ItemOID="EX.STUDYID" Value="CDISCPILOT01"/>
         <ItemData ItemOID="EX.DOMAIN" Value="EX"/>
         <ItemData ItemOID="EX.USUBJID" Value="01-701-1287"/>
         <ItemData ItemOID="EX.EXSEQ" Value="1"/>
         <ItemData ItemOID="EX.EXTRT" Value="XANOMELINE"/>
         <ItemData ItemOID="EX.EXDOSE" Value="54"/>
         <ItemData ItemOID="EX.EXDOSU" Value="mg"/>
         <ItemData ItemOID="EX.EXDOSFRM" Value="PATCH"/>
         <ItemData ItemOID="EX.EXDOSFRQ" Value="QD"/>
         <ItemData ItemOID="EX.EXROUTE" Value="TRANSDERMAL"/>
         <ItemData ItemOID="EX.VISITNUM" Value="3"/>
         <ItemData ItemOID="EX.VISIT" Value="BASELINE"/>
         <ItemData ItemOID="EX.VISITDY" Value="1"/>
         <ItemData ItemOID="EX.EXSTDTC" Value="2014-01-25"/>
         <ItemData ItemOID="EX.EXENDTC" Value="2014-02-11"/>
         <ItemData ItemOID="EX.EXSTDY" Value="1"/>
         <ItemData ItemOID="EX.EXENDY" Value="18"/>
      </ItemGroupData>
      <ItemGroupData data:ItemGroupDataSeq="60" ItemGroupOID="EX">
         <ItemData ItemOID="EX.STUDYID" Value="CDISCPILOT01"/>
         <ItemData ItemOID="EX.DOMAIN" Value="EX"/>
         <ItemData ItemOID="EX.USUBJID" Value="01-701-1287"/>
         <ItemData ItemOID="EX.EXSEQ" Value="2"/>
         <ItemData ItemOID="EX.EXTRT" Value="XANOMELINE"/>
         <ItemData ItemOID="EX.EXDOSE" Value="81"/>
         <ItemData ItemOID="EX.EXDOSU" Value="mg"/>
         <ItemData ItemOID="EX.EXDOSFRM" Value="PATCH"/>
         <ItemData ItemOID="EX.EXDOSFRQ" Value="QD"/>
         <ItemData ItemOID="EX.EXROUTE" Value="TRANSDERMAL"/>
         <ItemData ItemOID="EX.VISITNUM" Value="4"/>
         <ItemData ItemOID="EX.VISIT" Value="WEEK 2"/>
         <ItemData ItemOID="EX.VISITDY" Value="14"/>
         <ItemData ItemOID="EX.EXSTDTC" Value="2014-02-12"/>
         <ItemData ItemOID="EX.EXENDTC" Value="2014-07-12"/>
         <ItemData ItemOID="EX.EXSTDY" Value="19"/>
         <ItemData ItemOID="EX.EXENDY" Value="169"/>
      </ItemGroupData>
      <ItemGroupData data:ItemGroupDataSeq="61" ItemGroupOID="EX">
         <ItemData ItemOID="EX.STUDYID" Value="CDISCPILOT01"/>
         <ItemData ItemOID="EX.DOMAIN" Value="EX"/>
         <ItemData ItemOID="EX.USUBJID" Value="01-701-1287"/>
         <ItemData ItemOID="EX.EXSEQ" Value="3"/>
         <ItemData ItemOID="EX.EXTRT" Value="XANOMELINE"/>
         <ItemData ItemOID="EX.EXDOSE" Value="54"/>
         <ItemData ItemOID="EX.EXDOSU" Value="mg"/>
         <ItemData ItemOID="EX.EXDOSFRM" Value="PATCH"/>
         <ItemData ItemOID="EX.EXDOSFRQ" Value="QD"/>
         <ItemData ItemOID="EX.EXROUTE" Value="TRANSDERMAL"/>
         <ItemData ItemOID="EX.VISITNUM" Value="12"/>
         <ItemData ItemOID="EX.VISIT" Value="WEEK 24"/>
         <ItemData ItemOID="EX.VISITDY" Value="168"/>
         <ItemData ItemOID="EX.EXSTDTC" Value="2014-07-13"/>
         <ItemData ItemOID="EX.EXENDTC" Value="2014-07-26"/>
         <ItemData ItemOID="EX.EXSTDY" Value="170"/>
         <ItemData ItemOID="EX.EXENDY" Value="183"/>
      </ItemGroupData>
      <ItemGroupData data:ItemGroupDataSeq="62" ItemGroupOID="EX">
         <ItemData ItemOID="EX.STUDYID" Value="CDISCPILOT01"/>
         <ItemData ItemOID="EX.DOMAIN" Value="EX"/>
         <ItemData ItemOID="EX.USUBJID" Value="01-701-1294"/>
         <ItemData ItemOID="EX.EXSEQ" Value="1"/>
         <ItemData ItemOID="EX.EXTRT" Value="XANOMELINE"/>
         <ItemData ItemOID="EX.EXDOSE" Value="54"/>
         <ItemData ItemOID="EX.EXDOSU" Value="mg"/>
         <ItemData ItemOID="EX.EXDOSFRM" Value="PATCH"/>
         <ItemData ItemOID="EX.EXDOSFRQ" Value="QD"/>
         <ItemData ItemOID="EX.EXROUTE" Value="TRANSDERMAL"/>
         <ItemData ItemOID="EX.VISITNUM" Value="3"/>
         <ItemData ItemOID="EX.VISIT" Value="BASELINE"/>
         <ItemData ItemOID="EX.VISITDY" Value="1"/>
         <ItemData ItemOID="EX.EXSTDTC" Value="2013-03-24"/>
         <ItemData ItemOID="EX.EXENDTC" Value="2013-04-10"/>
         <ItemData ItemOID="EX.EXSTDY" Value="1"/>
         <ItemData ItemOID="EX.EXENDY" Value="18"/>
      </ItemGroupData>
      <ItemGroupData data:ItemGroupDataSeq="63" ItemGroupOID="EX">
         <ItemData ItemOID="EX.STUDYID" Value="CDISCPILOT01"/>
         <ItemData ItemOID="EX.DOMAIN" Value="EX"/>
         <ItemData ItemOID="EX.USUBJID" Value="01-701-1294"/>
         <ItemData ItemOID="EX.EXSEQ" Value="2"/>
         <ItemData ItemOID="EX.EXTRT" Value="XANOMELINE"/>
         <ItemData ItemOID="EX.EXDOSE" Value="54"/>
         <ItemData ItemOID="EX.EXDOSU" Value="mg"/>
         <ItemData ItemOID="EX.EXDOSFRM" Value="PATCH"/>
         <ItemData ItemOID="EX.EXDOSFRQ" Value="QD"/>
         <ItemData ItemOID="EX.EXROUTE" Value="TRANSDERMAL"/>
         <ItemData ItemOID="EX.VISITNUM" Value="4"/>
         <ItemData ItemOID="EX.VISIT" Value="WEEK 2"/>
         <ItemData ItemOID="EX.VISITDY" Value="14"/>
         <ItemData ItemOID="EX.EXSTDTC" Value="2013-04-11"/>
         <ItemData ItemOID="EX.EXENDTC" Value="2013-06-14"/>
         <ItemData ItemOID="EX.EXSTDY" Value="19"/>
         <ItemData ItemOID="EX.EXENDY" Value="83"/>
      </ItemGroupData>
      <ItemGroupData data:ItemGroupDataSeq="64" ItemGroupOID="EX">
         <ItemData ItemOID="EX.STUDYID" Value="CDISCPILOT01"/>
         <ItemData ItemOID="EX.DOMAIN" Value="EX"/>
         <ItemData ItemOID="EX.USUBJID" Value="01-701-1302"/>
         <ItemData ItemOID="EX.EXSEQ" Value="1"/>
         <ItemData ItemOID="EX.EXTRT" Value="XANOMELINE"/>
         <ItemData ItemOID="EX.EXDOSE" Value="54"/>
         <ItemData ItemOID="EX.EXDOSU" Value="mg"/>
         <ItemData ItemOID="EX.EXDOSFRM" Value="PATCH"/>
         <ItemData ItemOID="EX.EXDOSFRQ" Value="QD"/>
         <ItemData ItemOID="EX.EXROUTE" Value="TRANSDERMAL"/>
         <ItemData ItemOID="EX.VISITNUM" Value="3"/>
         <ItemData ItemOID="EX.VISIT" Value="BASELINE"/>
         <ItemData ItemOID="EX.VISITDY" Value="1"/>
         <ItemData ItemOID="EX.EXSTDTC" Value="2013-08-29"/>
         <ItemData ItemOID="EX.EXENDTC" Value="2013-09-15"/>
         <ItemData ItemOID="EX.EXSTDY" Value="1"/>
         <ItemData ItemOID="EX.EXENDY" Value="18"/>
      </ItemGroupData>
      <ItemGroupData data:ItemGroupDataSeq="65" ItemGroupOID="EX">
         <ItemData ItemOID="EX.STUDYID" Value="CDISCPILOT01"/>
         <ItemData ItemOID="EX.DOMAIN" Value="EX"/>
         <ItemData ItemOID="EX.USUBJID" Value="01-701-1302"/>
         <ItemData ItemOID="EX.EXSEQ" Value="2"/>
         <ItemData ItemOID="EX.EXTRT" Value="XANOMELINE"/>
         <ItemData ItemOID="EX.EXDOSE" Value="81"/>
         <ItemData ItemOID="EX.EXDOSU" Value="mg"/>
         <ItemData ItemOID="EX.EXDOSFRM" Value="PATCH"/>
         <ItemData ItemOID="EX.EXDOSFRQ" Value="QD"/>
         <ItemData ItemOID="EX.EXROUTE" Value="TRANSDERMAL"/>
         <ItemData ItemOID="EX.VISITNUM" Value="4"/>
         <ItemData ItemOID="EX.VISIT" Value="WEEK 2"/>
         <ItemData ItemOID="EX.VISITDY" Value="14"/>
         <ItemData ItemOID="EX.EXSTDTC" Value="2013-09-16"/>
         <ItemData ItemOID="EX.EXENDTC" Value="2013-11-05"/>
         <ItemData ItemOID="EX.EXSTDY" Value="19"/>
         <ItemData ItemOID="EX.EXENDY" Value="69"/>
      </ItemGroupData>
      <ItemGroupData data:ItemGroupDataSeq="66" ItemGroupOID="EX">
         <ItemData ItemOID="EX.STUDYID" Value="CDISCPILOT01"/>
         <ItemData ItemOID="EX.DOMAIN" Value="EX"/>
         <ItemData ItemOID="EX.USUBJID" Value="01-701-1317"/>
         <ItemData ItemOID="EX.EXSEQ" Value="1"/>
         <ItemData ItemOID="EX.EXTRT" Value="XANOMELINE"/>
         <ItemData ItemOID="EX.EXDOSE" Value="54"/>
         <ItemData ItemOID="EX.EXDOSU" Value="mg"/>
         <ItemData ItemOID="EX.EXDOSFRM" Value="PATCH"/>
         <ItemData ItemOID="EX.EXDOSFRQ" Value="QD"/>
         <ItemData ItemOID="EX.EXROUTE" Value="TRANSDERMAL"/>
         <ItemData ItemOID="EX.VISITNUM" Value="3"/>
         <ItemData ItemOID="EX.VISIT" Value="BASELINE"/>
         <ItemData ItemOID="EX.VISITDY" Value="1"/>
         <ItemData ItemOID="EX.EXSTDTC" Value="2014-05-22"/>
         <ItemData ItemOID="EX.EXENDTC" Value="2014-06-05"/>
         <ItemData ItemOID="EX.EXSTDY" Value="1"/>
         <ItemData ItemOID="EX.EXENDY" Value="15"/>
      </ItemGroupData>
      <ItemGroupData data:ItemGroupDataSeq="67" ItemGroupOID="EX">
         <ItemData ItemOID="EX.STUDYID" Value="CDISCPILOT01"/>
         <ItemData ItemOID="EX.DOMAIN" Value="EX"/>
         <ItemData ItemOID="EX.USUBJID" Value="01-701-1317"/>
         <ItemData ItemOID="EX.EXSEQ" Value="2"/>
         <ItemData ItemOID="EX.EXTRT" Value="XANOMELINE"/>
         <ItemData ItemOID="EX.EXDOSE" Value="54"/>
         <ItemData ItemOID="EX.EXDOSU" Value="mg"/>
         <ItemData ItemOID="EX.EXDOSFRM" Value="PATCH"/>
         <ItemData ItemOID="EX.EXDOSFRQ" Value="QD"/>
         <ItemData ItemOID="EX.EXROUTE" Value="TRANSDERMAL"/>
         <ItemData ItemOID="EX.VISITNUM" Value="4"/>
         <ItemData ItemOID="EX.VISIT" Value="WEEK 2"/>
         <ItemData ItemOID="EX.VISITDY" Value="14"/>
         <ItemData ItemOID="EX.EXSTDTC" Value="2014-06-06"/>
         <ItemData ItemOID="EX.EXENDTC" Value="2014-11-06"/>
         <ItemData ItemOID="EX.EXSTDY" Value="16"/>
         <ItemData ItemOID="EX.EXENDY" Value="169"/>
      </ItemGroupData>
      <ItemGroupData data:ItemGroupDataSeq="68" ItemGroupOID="EX">
         <ItemData ItemOID="EX.STUDYID" Value="CDISCPILOT01"/>
         <ItemData ItemOID="EX.DOMAIN" Value="EX"/>
         <ItemData ItemOID="EX.USUBJID" Value="01-701-1317"/>
         <ItemData ItemOID="EX.EXSEQ" Value="3"/>
         <ItemData ItemOID="EX.EXTRT" Value="XANOMELINE"/>
         <ItemData ItemOID="EX.EXDOSE" Value="54"/>
         <ItemData ItemOID="EX.EXDOSU" Value="mg"/>
         <ItemData ItemOID="EX.EXDOSFRM" Value="PATCH"/>
         <ItemData ItemOID="EX.EXDOSFRQ" Value="QD"/>
         <ItemData ItemOID="EX.EXROUTE" Value="TRANSDERMAL"/>
         <ItemData ItemOID="EX.VISITNUM" Value="12"/>
         <ItemData ItemOID="EX.VISIT" Value="WEEK 24"/>
         <ItemData ItemOID="EX.VISITDY" Value="168"/>
         <ItemData ItemOID="EX.EXSTDTC" Value="2014-11-07"/>
         <ItemData ItemOID="EX.EXENDTC" Value="2014-11-20"/>
         <ItemData ItemOID="EX.EXSTDY" Value="170"/>
         <ItemData ItemOID="EX.EXENDY" Value="183"/>
      </ItemGroupData>
      <ItemGroupData data:ItemGroupDataSeq="69" ItemGroupOID="EX">
         <ItemData ItemOID="EX.STUDYID" Value="CDISCPILOT01"/>
         <ItemData ItemOID="EX.DOMAIN" Value="EX"/>
         <ItemData ItemOID="EX.USUBJID" Value="01-701-1324"/>
         <ItemData ItemOID="EX.EXSEQ" Value="1"/>
         <ItemData ItemOID="EX.EXTRT" Value="XANOMELINE"/>
         <ItemData ItemOID="EX.EXDOSE" Value="54"/>
         <ItemData ItemOID="EX.EXDOSU" Value="mg"/>
         <ItemData ItemOID="EX.EXDOSFRM" Value="PATCH"/>
         <ItemData ItemOID="EX.EXDOSFRQ" Value="QD"/>
         <ItemData ItemOID="EX.EXROUTE" Value="TRANSDERMAL"/>
         <ItemData ItemOID="EX.VISITNUM" Value="3"/>
         <ItemData ItemOID="EX.VISIT" Value="BASELINE"/>
         <ItemData ItemOID="EX.VISITDY" Value="1"/>
         <ItemData ItemOID="EX.EXSTDTC" Value="2012-10-02"/>
         <ItemData ItemOID="EX.EXENDTC" Value="2012-10-16"/>
         <ItemData ItemOID="EX.EXSTDY" Value="1"/>
         <ItemData ItemOID="EX.EXENDY" Value="15"/>
      </ItemGroupData>
      <ItemGroupData data:ItemGroupDataSeq="70" ItemGroupOID="EX">
         <ItemData ItemOID="EX.STUDYID" Value="CDISCPILOT01"/>
         <ItemData ItemOID="EX.DOMAIN" Value="EX"/>
         <ItemData ItemOID="EX.USUBJID" Value="01-701-1324"/>
         <ItemData ItemOID="EX.EXSEQ" Value="2"/>
         <ItemData ItemOID="EX.EXTRT" Value="XANOMELINE"/>
         <ItemData ItemOID="EX.EXDOSE" Value="54"/>
         <ItemData ItemOID="EX.EXDOSU" Value="mg"/>
         <ItemData ItemOID="EX.EXDOSFRM" Value="PATCH"/>
         <ItemData ItemOID="EX.EXDOSFRQ" Value="QD"/>
         <ItemData ItemOID="EX.EXROUTE" Value="TRANSDERMAL"/>
         <ItemData ItemOID="EX.VISITNUM" Value="4"/>
         <ItemData ItemOID="EX.VISIT" Value="WEEK 2"/>
         <ItemData ItemOID="EX.VISITDY" Value="14"/>
         <ItemData ItemOID="EX.EXSTDTC" Value="2012-10-17"/>
         <ItemData ItemOID="EX.EXENDTC" Value="2013-03-19"/>
         <ItemData ItemOID="EX.EXSTDY" Value="16"/>
         <ItemData ItemOID="EX.EXENDY" Value="169"/>
      </ItemGroupData>
      <ItemGroupData data:ItemGroupDataSeq="71" ItemGroupOID="EX">
         <ItemData ItemOID="EX.STUDYID" Value="CDISCPILOT01"/>
         <ItemData ItemOID="EX.DOMAIN" Value="EX"/>
         <ItemData ItemOID="EX.USUBJID" Value="01-701-1324"/>
         <ItemData ItemOID="EX.EXSEQ" Value="3"/>
         <ItemData ItemOID="EX.EXTRT" Value="XANOMELINE"/>
         <ItemData ItemOID="EX.EXDOSE" Value="54"/>
         <ItemData ItemOID="EX.EXDOSU" Value="mg"/>
         <ItemData ItemOID="EX.EXDOSFRM" Value="PATCH"/>
         <ItemData ItemOID="EX.EXDOSFRQ" Value="QD"/>
         <ItemData ItemOID="EX.EXROUTE" Value="TRANSDERMAL"/>
         <ItemData ItemOID="EX.VISITNUM" Value="12"/>
         <ItemData ItemOID="EX.VISIT" Value="WEEK 24"/>
         <ItemData ItemOID="EX.VISITDY" Value="168"/>
         <ItemData ItemOID="EX.EXSTDTC" Value="2013-03-20"/>
         <ItemData ItemOID="EX.EXENDTC" Value="2013-04-02"/>
         <ItemData ItemOID="EX.EXSTDY" Value="170"/>
         <ItemData ItemOID="EX.EXENDY" Value="183"/>
      </ItemGroupData>
      <ItemGroupData data:ItemGroupDataSeq="72" ItemGroupOID="EX">
         <ItemData ItemOID="EX.STUDYID" Value="CDISCPILOT01"/>
         <ItemData ItemOID="EX.DOMAIN" Value="EX"/>
         <ItemData ItemOID="EX.USUBJID" Value="01-701-1341"/>
         <ItemData ItemOID="EX.EXSEQ" Value="1"/>
         <ItemData ItemOID="EX.EXTRT" Value="XANOMELINE"/>
         <ItemData ItemOID="EX.EXDOSE" Value="54"/>
         <ItemData ItemOID="EX.EXDOSU" Value="mg"/>
         <ItemData ItemOID="EX.EXDOSFRM" Value="PATCH"/>
         <ItemData ItemOID="EX.EXDOSFRQ" Value="QD"/>
         <ItemData ItemOID="EX.EXROUTE" Value="TRANSDERMAL"/>
         <ItemData ItemOID="EX.VISITNUM" Value="3"/>
         <ItemData ItemOID="EX.VISIT" Value="BASELINE"/>
         <ItemData ItemOID="EX.VISITDY" Value="1"/>
         <ItemData ItemOID="EX.EXSTDTC" Value="2013-01-05"/>
         <ItemData ItemOID="EX.EXENDTC" Value="2013-01-18"/>
         <ItemData ItemOID="EX.EXSTDY" Value="1"/>
         <ItemData ItemOID="EX.EXENDY" Value="14"/>
      </ItemGroupData>
      <ItemGroupData data:ItemGroupDataSeq="73" ItemGroupOID="EX">
         <ItemData ItemOID="EX.STUDYID" Value="CDISCPILOT01"/>
         <ItemData ItemOID="EX.DOMAIN" Value="EX"/>
         <ItemData ItemOID="EX.USUBJID" Value="01-701-1341"/>
         <ItemData ItemOID="EX.EXSEQ" Value="2"/>
         <ItemData ItemOID="EX.EXTRT" Value="XANOMELINE"/>
         <ItemData ItemOID="EX.EXDOSE" Value="54"/>
         <ItemData ItemOID="EX.EXDOSU" Value="mg"/>
         <ItemData ItemOID="EX.EXDOSFRM" Value="PATCH"/>
         <ItemData ItemOID="EX.EXDOSFRQ" Value="QD"/>
         <ItemData ItemOID="EX.EXROUTE" Value="TRANSDERMAL"/>
         <ItemData ItemOID="EX.VISITNUM" Value="4"/>
         <ItemData ItemOID="EX.VISIT" Value="WEEK 2"/>
         <ItemData ItemOID="EX.VISITDY" Value="14"/>
         <ItemData ItemOID="EX.EXSTDTC" Value="2013-01-19"/>
         <ItemData ItemOID="EX.EXENDTC" Value="2013-01-26"/>
         <ItemData ItemOID="EX.EXSTDY" Value="15"/>
         <ItemData ItemOID="EX.EXENDY" Value="22"/>
      </ItemGroupData>
      <ItemGroupData data:ItemGroupDataSeq="74" ItemGroupOID="EX">
         <ItemData ItemOID="EX.STUDYID" Value="CDISCPILOT01"/>
         <ItemData ItemOID="EX.DOMAIN" Value="EX"/>
         <ItemData ItemOID="EX.USUBJID" Value="01-701-1345"/>
         <ItemData ItemOID="EX.EXSEQ" Value="1"/>
         <ItemData ItemOID="EX.EXTRT" Value="PLACEBO"/>
         <ItemData ItemOID="EX.EXDOSE" Value="0"/>
         <ItemData ItemOID="EX.EXDOSU" Value="mg"/>
         <ItemData ItemOID="EX.EXDOSFRM" Value="PATCH"/>
         <ItemData ItemOID="EX.EXDOSFRQ" Value="QD"/>
         <ItemData ItemOID="EX.EXROUTE" Value="TRANSDERMAL"/>
         <ItemData ItemOID="EX.VISITNUM" Value="3"/>
         <ItemData ItemOID="EX.VISIT" Value="BASELINE"/>
         <ItemData ItemOID="EX.VISITDY" Value="1"/>
         <ItemData ItemOID="EX.EXSTDTC" Value="2013-10-08"/>
         <ItemData ItemOID="EX.EXENDTC" Value="2013-10-24"/>
         <ItemData ItemOID="EX.EXSTDY" Value="1"/>
         <ItemData ItemOID="EX.EXENDY" Value="17"/>
      </ItemGroupData>
      <ItemGroupData data:ItemGroupDataSeq="75" ItemGroupOID="EX">
         <ItemData ItemOID="EX.STUDYID" Value="CDISCPILOT01"/>
         <ItemData ItemOID="EX.DOMAIN" Value="EX"/>
         <ItemData ItemOID="EX.USUBJID" Value="01-701-1345"/>
         <ItemData ItemOID="EX.EXSEQ" Value="2"/>
         <ItemData ItemOID="EX.EXTRT" Value="PLACEBO"/>
         <ItemData ItemOID="EX.EXDOSE" Value="0"/>
         <ItemData ItemOID="EX.EXDOSU" Value="mg"/>
         <ItemData ItemOID="EX.EXDOSFRM" Value="PATCH"/>
         <ItemData ItemOID="EX.EXDOSFRQ" Value="QD"/>
         <ItemData ItemOID="EX.EXROUTE" Value="TRANSDERMAL"/>
         <ItemData ItemOID="EX.VISITNUM" Value="4"/>
         <ItemData ItemOID="EX.VISIT" Value="WEEK 2"/>
         <ItemData ItemOID="EX.VISITDY" Value="14"/>
         <ItemData ItemOID="EX.EXSTDTC" Value="2013-10-25"/>
         <ItemData ItemOID="EX.EXENDTC" Value="2014-03-18"/>
         <ItemData ItemOID="EX.EXSTDY" Value="18"/>
         <ItemData ItemOID="EX.EXENDY" Value="162"/>
      </ItemGroupData>
      <ItemGroupData data:ItemGroupDataSeq="76" ItemGroupOID="EX">
         <ItemData ItemOID="EX.STUDYID" Value="CDISCPILOT01"/>
         <ItemData ItemOID="EX.DOMAIN" Value="EX"/>
         <ItemData ItemOID="EX.USUBJID" Value="01-701-1360"/>
         <ItemData ItemOID="EX.EXSEQ" Value="1"/>
         <ItemData ItemOID="EX.EXTRT" Value="XANOMELINE"/>
         <ItemData ItemOID="EX.EXDOSE" Value="54"/>
         <ItemData ItemOID="EX.EXDOSU" Value="mg"/>
         <ItemData ItemOID="EX.EXDOSFRM" Value="PATCH"/>
         <ItemData ItemOID="EX.EXDOSFRQ" Value="QD"/>
         <ItemData ItemOID="EX.EXROUTE" Value="TRANSDERMAL"/>
         <ItemData ItemOID="EX.VISITNUM" Value="3"/>
         <ItemData ItemOID="EX.VISIT" Value="BASELINE"/>
         <ItemData ItemOID="EX.VISITDY" Value="1"/>
         <ItemData ItemOID="EX.EXSTDTC" Value="2013-07-31"/>
         <ItemData ItemOID="EX.EXENDTC" Value="2013-08-05"/>
         <ItemData ItemOID="EX.EXSTDY" Value="1"/>
         <ItemData ItemOID="EX.EXENDY" Value="6"/>
      </ItemGroupData>
      <ItemGroupData data:ItemGroupDataSeq="77" ItemGroupOID="EX">
         <ItemData ItemOID="EX.STUDYID" Value="CDISCPILOT01"/>
         <ItemData ItemOID="EX.DOMAIN" Value="EX"/>
         <ItemData ItemOID="EX.USUBJID" Value="01-701-1363"/>
         <ItemData ItemOID="EX.EXSEQ" Value="1"/>
         <ItemData ItemOID="EX.EXTRT" Value="PLACEBO"/>
         <ItemData ItemOID="EX.EXDOSE" Value="0"/>
         <ItemData ItemOID="EX.EXDOSU" Value="mg"/>
         <ItemData ItemOID="EX.EXDOSFRM" Value="PATCH"/>
         <ItemData ItemOID="EX.EXDOSFRQ" Value="QD"/>
         <ItemData ItemOID="EX.EXROUTE" Value="TRANSDERMAL"/>
         <ItemData ItemOID="EX.VISITNUM" Value="3"/>
         <ItemData ItemOID="EX.VISIT" Value="BASELINE"/>
         <ItemData ItemOID="EX.VISITDY" Value="1"/>
         <ItemData ItemOID="EX.EXSTDTC" Value="2013-05-30"/>
         <ItemData ItemOID="EX.EXENDTC" Value="2013-06-12"/>
         <ItemData ItemOID="EX.EXSTDY" Value="1"/>
         <ItemData ItemOID="EX.EXENDY" Value="14"/>
      </ItemGroupData>
      <ItemGroupData data:ItemGroupDataSeq="78" ItemGroupOID="EX">
         <ItemData ItemOID="EX.STUDYID" Value="CDISCPILOT01"/>
         <ItemData ItemOID="EX.DOMAIN" Value="EX"/>
         <ItemData ItemOID="EX.USUBJID" Value="01-701-1363"/>
         <ItemData ItemOID="EX.EXSEQ" Value="2"/>
         <ItemData ItemOID="EX.EXTRT" Value="PLACEBO"/>
         <ItemData ItemOID="EX.EXDOSE" Value="0"/>
         <ItemData ItemOID="EX.EXDOSU" Value="mg"/>
         <ItemData ItemOID="EX.EXDOSFRM" Value="PATCH"/>
         <ItemData ItemOID="EX.EXDOSFRQ" Value="QD"/>
         <ItemData ItemOID="EX.EXROUTE" Value="TRANSDERMAL"/>
         <ItemData ItemOID="EX.VISITNUM" Value="4"/>
         <ItemData ItemOID="EX.VISIT" Value="WEEK 2"/>
         <ItemData ItemOID="EX.VISITDY" Value="14"/>
         <ItemData ItemOID="EX.EXSTDTC" Value="2013-06-13"/>
         <ItemData ItemOID="EX.EXENDTC" Value="2013-11-13"/>
         <ItemData ItemOID="EX.EXSTDY" Value="15"/>
         <ItemData ItemOID="EX.EXENDY" Value="168"/>
      </ItemGroupData>
      <ItemGroupData data:ItemGroupDataSeq="79" ItemGroupOID="EX">
         <ItemData ItemOID="EX.STUDYID" Value="CDISCPILOT01"/>
         <ItemData ItemOID="EX.DOMAIN" Value="EX"/>
         <ItemData ItemOID="EX.USUBJID" Value="01-701-1363"/>
         <ItemData ItemOID="EX.EXSEQ" Value="3"/>
         <ItemData ItemOID="EX.EXTRT" Value="PLACEBO"/>
         <ItemData ItemOID="EX.EXDOSE" Value="0"/>
         <ItemData ItemOID="EX.EXDOSU" Value="mg"/>
         <ItemData ItemOID="EX.EXDOSFRM" Value="PATCH"/>
         <ItemData ItemOID="EX.EXDOSFRQ" Value="QD"/>
         <ItemData ItemOID="EX.EXROUTE" Value="TRANSDERMAL"/>
         <ItemData ItemOID="EX.VISITNUM" Value="12"/>
         <ItemData ItemOID="EX.VISIT" Value="WEEK 24"/>
         <ItemData ItemOID="EX.VISITDY" Value="168"/>
         <ItemData ItemOID="EX.EXSTDTC" Value="2013-11-14"/>
         <ItemData ItemOID="EX.EXENDTC" Value="2013-11-27"/>
         <ItemData ItemOID="EX.EXSTDY" Value="169"/>
         <ItemData ItemOID="EX.EXENDY" Value="182"/>
      </ItemGroupData>
      <ItemGroupData data:ItemGroupDataSeq="80" ItemGroupOID="EX">
         <ItemData ItemOID="EX.STUDYID" Value="CDISCPILOT01"/>
         <ItemData ItemOID="EX.DOMAIN" Value="EX"/>
         <ItemData ItemOID="EX.USUBJID" Value="01-701-1383"/>
         <ItemData ItemOID="EX.EXSEQ" Value="1"/>
         <ItemData ItemOID="EX.EXTRT" Value="XANOMELINE"/>
         <ItemData ItemOID="EX.EXDOSE" Value="54"/>
         <ItemData ItemOID="EX.EXDOSU" Value="mg"/>
         <ItemData ItemOID="EX.EXDOSFRM" Value="PATCH"/>
         <ItemData ItemOID="EX.EXDOSFRQ" Value="QD"/>
         <ItemData ItemOID="EX.EXROUTE" Value="TRANSDERMAL"/>
         <ItemData ItemOID="EX.VISITNUM" Value="3"/>
         <ItemData ItemOID="EX.VISIT" Value="BASELINE"/>
         <ItemData ItemOID="EX.VISITDY" Value="1"/>
         <ItemData ItemOID="EX.EXSTDTC" Value="2013-02-04"/>
         <ItemData ItemOID="EX.EXENDTC" Value="2013-02-19"/>
         <ItemData ItemOID="EX.EXSTDY" Value="1"/>
         <ItemData ItemOID="EX.EXENDY" Value="16"/>
      </ItemGroupData>
      <ItemGroupData data:ItemGroupDataSeq="81" ItemGroupOID="EX">
         <ItemData ItemOID="EX.STUDYID" Value="CDISCPILOT01"/>
         <ItemData ItemOID="EX.DOMAIN" Value="EX"/>
         <ItemData ItemOID="EX.USUBJID" Value="01-701-1383"/>
         <ItemData ItemOID="EX.EXSEQ" Value="2"/>
         <ItemData ItemOID="EX.EXTRT" Value="XANOMELINE"/>
         <ItemData ItemOID="EX.EXDOSE" Value="81"/>
         <ItemData ItemOID="EX.EXDOSU" Value="mg"/>
         <ItemData ItemOID="EX.EXDOSFRM" Value="PATCH"/>
         <ItemData ItemOID="EX.EXDOSFRQ" Value="QD"/>
         <ItemData ItemOID="EX.EXROUTE" Value="TRANSDERMAL"/>
         <ItemData ItemOID="EX.VISITNUM" Value="4"/>
         <ItemData ItemOID="EX.VISIT" Value="WEEK 2"/>
         <ItemData ItemOID="EX.VISITDY" Value="14"/>
         <ItemData ItemOID="EX.EXSTDTC" Value="2013-02-20"/>
         <ItemData ItemOID="EX.EXENDTC" Value="2013-07-30"/>
         <ItemData ItemOID="EX.EXSTDY" Value="17"/>
         <ItemData ItemOID="EX.EXENDY" Value="177"/>
      </ItemGroupData>
      <ItemGroupData data:ItemGroupDataSeq="82" ItemGroupOID="EX">
         <ItemData ItemOID="EX.STUDYID" Value="CDISCPILOT01"/>
         <ItemData ItemOID="EX.DOMAIN" Value="EX"/>
         <ItemData ItemOID="EX.USUBJID" Value="01-701-1383"/>
         <ItemData ItemOID="EX.EXSEQ" Value="3"/>
         <ItemData ItemOID="EX.EXTRT" Value="XANOMELINE"/>
         <ItemData ItemOID="EX.EXDOSE" Value="54"/>
         <ItemData ItemOID="EX.EXDOSU" Value="mg"/>
         <ItemData ItemOID="EX.EXDOSFRM" Value="PATCH"/>
         <ItemData ItemOID="EX.EXDOSFRQ" Value="QD"/>
         <ItemData ItemOID="EX.EXROUTE" Value="TRANSDERMAL"/>
         <ItemData ItemOID="EX.VISITNUM" Value="12"/>
         <ItemData ItemOID="EX.VISIT" Value="WEEK 24"/>
         <ItemData ItemOID="EX.VISITDY" Value="168"/>
         <ItemData ItemOID="EX.EXSTDTC" Value="2013-07-31"/>
         <ItemData ItemOID="EX.EXENDTC" Value="2013-08-06"/>
         <ItemData ItemOID="EX.EXSTDY" Value="178"/>
         <ItemData ItemOID="EX.EXENDY" Value="184"/>
      </ItemGroupData>
      <ItemGroupData data:ItemGroupDataSeq="83" ItemGroupOID="EX">
         <ItemData ItemOID="EX.STUDYID" Value="CDISCPILOT01"/>
         <ItemData ItemOID="EX.DOMAIN" Value="EX"/>
         <ItemData ItemOID="EX.USUBJID" Value="01-701-1387"/>
         <ItemData ItemOID="EX.EXSEQ" Value="1"/>
         <ItemData ItemOID="EX.EXTRT" Value="PLACEBO"/>
         <ItemData ItemOID="EX.EXDOSE" Value="0"/>
         <ItemData ItemOID="EX.EXDOSU" Value="mg"/>
         <ItemData ItemOID="EX.EXDOSFRM" Value="PATCH"/>
         <ItemData ItemOID="EX.EXDOSFRQ" Value="QD"/>
         <ItemData ItemOID="EX.EXROUTE" Value="TRANSDERMAL"/>
         <ItemData ItemOID="EX.VISITNUM" Value="3"/>
         <ItemData ItemOID="EX.VISIT" Value="BASELINE"/>
         <ItemData ItemOID="EX.VISITDY" Value="1"/>
         <ItemData ItemOID="EX.EXSTDTC" Value="2014-03-12"/>
         <ItemData ItemOID="EX.EXENDTC" Value="2014-03-25"/>
         <ItemData ItemOID="EX.EXSTDY" Value="1"/>
         <ItemData ItemOID="EX.EXENDY" Value="14"/>
      </ItemGroupData>
      <ItemGroupData data:ItemGroupDataSeq="84" ItemGroupOID="EX">
         <ItemData ItemOID="EX.STUDYID" Value="CDISCPILOT01"/>
         <ItemData ItemOID="EX.DOMAIN" Value="EX"/>
         <ItemData ItemOID="EX.USUBJID" Value="01-701-1392"/>
         <ItemData ItemOID="EX.EXSEQ" Value="1"/>
         <ItemData ItemOID="EX.EXTRT" Value="PLACEBO"/>
         <ItemData ItemOID="EX.EXDOSE" Value="0"/>
         <ItemData ItemOID="EX.EXDOSU" Value="mg"/>
         <ItemData ItemOID="EX.EXDOSFRM" Value="PATCH"/>
         <ItemData ItemOID="EX.EXDOSFRQ" Value="QD"/>
         <ItemData ItemOID="EX.EXROUTE" Value="TRANSDERMAL"/>
         <ItemData ItemOID="EX.VISITNUM" Value="3"/>
         <ItemData ItemOID="EX.VISIT" Value="BASELINE"/>
         <ItemData ItemOID="EX.VISITDY" Value="1"/>
         <ItemData ItemOID="EX.EXSTDTC" Value="2012-10-28"/>
         <ItemData ItemOID="EX.EXENDTC" Value="2012-11-11"/>
         <ItemData ItemOID="EX.EXSTDY" Value="1"/>
         <ItemData ItemOID="EX.EXENDY" Value="15"/>
      </ItemGroupData>
      <ItemGroupData data:ItemGroupDataSeq="85" ItemGroupOID="EX">
         <ItemData ItemOID="EX.STUDYID" Value="CDISCPILOT01"/>
         <ItemData ItemOID="EX.DOMAIN" Value="EX"/>
         <ItemData ItemOID="EX.USUBJID" Value="01-701-1392"/>
         <ItemData ItemOID="EX.EXSEQ" Value="2"/>
         <ItemData ItemOID="EX.EXTRT" Value="PLACEBO"/>
         <ItemData ItemOID="EX.EXDOSE" Value="0"/>
         <ItemData ItemOID="EX.EXDOSU" Value="mg"/>
         <ItemData ItemOID="EX.EXDOSFRM" Value="PATCH"/>
         <ItemData ItemOID="EX.EXDOSFRQ" Value="QD"/>
         <ItemData ItemOID="EX.EXROUTE" Value="TRANSDERMAL"/>
         <ItemData ItemOID="EX.VISITNUM" Value="4"/>
         <ItemData ItemOID="EX.VISIT" Value="WEEK 2"/>
         <ItemData ItemOID="EX.VISITDY" Value="14"/>
         <ItemData ItemOID="EX.EXSTDTC" Value="2012-11-12"/>
         <ItemData ItemOID="EX.EXENDTC" Value="2013-04-15"/>
         <ItemData ItemOID="EX.EXSTDY" Value="16"/>
         <ItemData ItemOID="EX.EXENDY" Value="170"/>
      </ItemGroupData>
      <ItemGroupData data:ItemGroupDataSeq="86" ItemGroupOID="EX">
         <ItemData ItemOID="EX.STUDYID" Value="CDISCPILOT01"/>
         <ItemData ItemOID="EX.DOMAIN" Value="EX"/>
         <ItemData ItemOID="EX.USUBJID" Value="01-701-1392"/>
         <ItemData ItemOID="EX.EXSEQ" Value="3"/>
         <ItemData ItemOID="EX.EXTRT" Value="PLACEBO"/>
         <ItemData ItemOID="EX.EXDOSE" Value="0"/>
         <ItemData ItemOID="EX.EXDOSU" Value="mg"/>
         <ItemData ItemOID="EX.EXDOSFRM" Value="PATCH"/>
         <ItemData ItemOID="EX.EXDOSFRQ" Value="QD"/>
         <ItemData ItemOID="EX.EXROUTE" Value="TRANSDERMAL"/>
         <ItemData ItemOID="EX.VISITNUM" Value="12"/>
         <ItemData ItemOID="EX.VISIT" Value="WEEK 24"/>
         <ItemData ItemOID="EX.VISITDY" Value="168"/>
         <ItemData ItemOID="EX.EXSTDTC" Value="2013-04-16"/>
         <ItemData ItemOID="EX.EXENDTC" Value="2013-04-28"/>
         <ItemData ItemOID="EX.EXSTDY" Value="171"/>
         <ItemData ItemOID="EX.EXENDY" Value="183"/>
      </ItemGroupData>
      <ItemGroupData data:ItemGroupDataSeq="87" ItemGroupOID="EX">
         <ItemData ItemOID="EX.STUDYID" Value="CDISCPILOT01"/>
         <ItemData ItemOID="EX.DOMAIN" Value="EX"/>
         <ItemData ItemOID="EX.USUBJID" Value="01-701-1415"/>
         <ItemData ItemOID="EX.EXSEQ" Value="1"/>
         <ItemData ItemOID="EX.EXTRT" Value="PLACEBO"/>
         <ItemData ItemOID="EX.EXDOSE" Value="0"/>
         <ItemData ItemOID="EX.EXDOSU" Value="mg"/>
         <ItemData ItemOID="EX.EXDOSFRM" Value="PATCH"/>
         <ItemData ItemOID="EX.EXDOSFRQ" Value="QD"/>
         <ItemData ItemOID="EX.EXROUTE" Value="TRANSDERMAL"/>
         <ItemData ItemOID="EX.VISITNUM" Value="3"/>
         <ItemData ItemOID="EX.VISIT" Value="BASELINE"/>
         <ItemData ItemOID="EX.VISITDY" Value="1"/>
         <ItemData ItemOID="EX.EXSTDTC" Value="2013-09-23"/>
         <ItemData ItemOID="EX.EXENDTC" Value="2013-10-07"/>
         <ItemData ItemOID="EX.EXSTDY" Value="1"/>
         <ItemData ItemOID="EX.EXENDY" Value="15"/>
      </ItemGroupData>
      <ItemGroupData data:ItemGroupDataSeq="88" ItemGroupOID="EX">
         <ItemData ItemOID="EX.STUDYID" Value="CDISCPILOT01"/>
         <ItemData ItemOID="EX.DOMAIN" Value="EX"/>
         <ItemData ItemOID="EX.USUBJID" Value="01-701-1415"/>
         <ItemData ItemOID="EX.EXSEQ" Value="2"/>
         <ItemData ItemOID="EX.EXTRT" Value="PLACEBO"/>
         <ItemData ItemOID="EX.EXDOSE" Value="0"/>
         <ItemData ItemOID="EX.EXDOSU" Value="mg"/>
         <ItemData ItemOID="EX.EXDOSFRM" Value="PATCH"/>
         <ItemData ItemOID="EX.EXDOSFRQ" Value="QD"/>
         <ItemData ItemOID="EX.EXROUTE" Value="TRANSDERMAL"/>
         <ItemData ItemOID="EX.VISITNUM" Value="4"/>
         <ItemData ItemOID="EX.VISIT" Value="WEEK 2"/>
         <ItemData ItemOID="EX.VISITDY" Value="14"/>
         <ItemData ItemOID="EX.EXSTDTC" Value="2013-10-08"/>
         <ItemData ItemOID="EX.EXENDTC" Value="2014-03-10"/>
         <ItemData ItemOID="EX.EXSTDY" Value="16"/>
         <ItemData ItemOID="EX.EXENDY" Value="169"/>
      </ItemGroupData>
      <ItemGroupData data:ItemGroupDataSeq="89" ItemGroupOID="EX">
         <ItemData ItemOID="EX.STUDYID" Value="CDISCPILOT01"/>
         <ItemData ItemOID="EX.DOMAIN" Value="EX"/>
         <ItemData ItemOID="EX.USUBJID" Value="01-701-1415"/>
         <ItemData ItemOID="EX.EXSEQ" Value="3"/>
         <ItemData ItemOID="EX.EXTRT" Value="PLACEBO"/>
         <ItemData ItemOID="EX.EXDOSE" Value="0"/>
         <ItemData ItemOID="EX.EXDOSU" Value="mg"/>
         <ItemData ItemOID="EX.EXDOSFRM" Value="PATCH"/>
         <ItemData ItemOID="EX.EXDOSFRQ" Value="QD"/>
         <ItemData ItemOID="EX.EXROUTE" Value="TRANSDERMAL"/>
         <ItemData ItemOID="EX.VISITNUM" Value="12"/>
         <ItemData ItemOID="EX.VISIT" Value="WEEK 24"/>
         <ItemData ItemOID="EX.VISITDY" Value="168"/>
         <ItemData ItemOID="EX.EXSTDTC" Value="2014-03-11"/>
         <ItemData ItemOID="EX.EXENDTC" Value="2014-03-24"/>
         <ItemData ItemOID="EX.EXSTDY" Value="170"/>
         <ItemData ItemOID="EX.EXENDY" Value="183"/>
      </ItemGroupData>
      <ItemGroupData data:ItemGroupDataSeq="90" ItemGroupOID="EX">
         <ItemData ItemOID="EX.STUDYID" Value="CDISCPILOT01"/>
         <ItemData ItemOID="EX.DOMAIN" Value="EX"/>
         <ItemData ItemOID="EX.USUBJID" Value="01-701-1429"/>
         <ItemData ItemOID="EX.EXSEQ" Value="1"/>
         <ItemData ItemOID="EX.EXTRT" Value="XANOMELINE"/>
         <ItemData ItemOID="EX.EXDOSE" Value="54"/>
         <ItemData ItemOID="EX.EXDOSU" Value="mg"/>
         <ItemData ItemOID="EX.EXDOSFRM" Value="PATCH"/>
         <ItemData ItemOID="EX.EXDOSFRQ" Value="QD"/>
         <ItemData ItemOID="EX.EXROUTE" Value="TRANSDERMAL"/>
         <ItemData ItemOID="EX.VISITNUM" Value="3"/>
         <ItemData ItemOID="EX.VISIT" Value="BASELINE"/>
         <ItemData ItemOID="EX.VISITDY" Value="1"/>
         <ItemData ItemOID="EX.EXSTDTC" Value="2013-03-19"/>
         <ItemData ItemOID="EX.EXENDTC" Value="2013-04-02"/>
         <ItemData ItemOID="EX.EXSTDY" Value="1"/>
         <ItemData ItemOID="EX.EXENDY" Value="15"/>
      </ItemGroupData>
      <ItemGroupData data:ItemGroupDataSeq="91" ItemGroupOID="EX">
         <ItemData ItemOID="EX.STUDYID" Value="CDISCPILOT01"/>
         <ItemData ItemOID="EX.DOMAIN" Value="EX"/>
         <ItemData ItemOID="EX.USUBJID" Value="01-701-1429"/>
         <ItemData ItemOID="EX.EXSEQ" Value="2"/>
         <ItemData ItemOID="EX.EXTRT" Value="XANOMELINE"/>
         <ItemData ItemOID="EX.EXDOSE" Value="54"/>
         <ItemData ItemOID="EX.EXDOSU" Value="mg"/>
         <ItemData ItemOID="EX.EXDOSFRM" Value="PATCH"/>
         <ItemData ItemOID="EX.EXDOSFRQ" Value="QD"/>
         <ItemData ItemOID="EX.EXROUTE" Value="TRANSDERMAL"/>
         <ItemData ItemOID="EX.VISITNUM" Value="4"/>
         <ItemData ItemOID="EX.VISIT" Value="WEEK 2"/>
         <ItemData ItemOID="EX.VISITDY" Value="14"/>
         <ItemData ItemOID="EX.EXSTDTC" Value="2013-04-03"/>
         <ItemData ItemOID="EX.EXENDTC" Value="2013-04-30"/>
         <ItemData ItemOID="EX.EXSTDY" Value="16"/>
         <ItemData ItemOID="EX.EXENDY" Value="43"/>
      </ItemGroupData>
      <ItemGroupData data:ItemGroupDataSeq="92" ItemGroupOID="EX">
         <ItemData ItemOID="EX.STUDYID" Value="CDISCPILOT01"/>
         <ItemData ItemOID="EX.DOMAIN" Value="EX"/>
         <ItemData ItemOID="EX.USUBJID" Value="01-701-1440"/>
         <ItemData ItemOID="EX.EXSEQ" Value="1"/>
         <ItemData ItemOID="EX.EXTRT" Value="PLACEBO"/>
         <ItemData ItemOID="EX.EXDOSE" Value="0"/>
         <ItemData ItemOID="EX.EXDOSU" Value="mg"/>
         <ItemData ItemOID="EX.EXDOSFRM" Value="PATCH"/>
         <ItemData ItemOID="EX.EXDOSFRQ" Value="QD"/>
         <ItemData ItemOID="EX.EXROUTE" Value="TRANSDERMAL"/>
         <ItemData ItemOID="EX.VISITNUM" Value="3"/>
         <ItemData ItemOID="EX.VISIT" Value="BASELINE"/>
         <ItemData ItemOID="EX.VISITDY" Value="1"/>
         <ItemData ItemOID="EX.EXSTDTC" Value="2013-08-08"/>
         <ItemData ItemOID="EX.EXENDTC" Value="2013-08-23"/>
         <ItemData ItemOID="EX.EXSTDY" Value="1"/>
         <ItemData ItemOID="EX.EXENDY" Value="16"/>
      </ItemGroupData>
      <ItemGroupData data:ItemGroupDataSeq="93" ItemGroupOID="EX">
         <ItemData ItemOID="EX.STUDYID" Value="CDISCPILOT01"/>
         <ItemData ItemOID="EX.DOMAIN" Value="EX"/>
         <ItemData ItemOID="EX.USUBJID" Value="01-701-1440"/>
         <ItemData ItemOID="EX.EXSEQ" Value="2"/>
         <ItemData ItemOID="EX.EXTRT" Value="PLACEBO"/>
         <ItemData ItemOID="EX.EXDOSE" Value="0"/>
         <ItemData ItemOID="EX.EXDOSU" Value="mg"/>
         <ItemData ItemOID="EX.EXDOSFRM" Value="PATCH"/>
         <ItemData ItemOID="EX.EXDOSFRQ" Value="QD"/>
         <ItemData ItemOID="EX.EXROUTE" Value="TRANSDERMAL"/>
         <ItemData ItemOID="EX.VISITNUM" Value="4"/>
         <ItemData ItemOID="EX.VISIT" Value="WEEK 2"/>
         <ItemData ItemOID="EX.VISITDY" Value="14"/>
         <ItemData ItemOID="EX.EXSTDTC" Value="2013-08-24"/>
         <ItemData ItemOID="EX.EXENDTC" Value="2014-01-22"/>
         <ItemData ItemOID="EX.EXSTDY" Value="17"/>
         <ItemData ItemOID="EX.EXENDY" Value="168"/>
      </ItemGroupData>
      <ItemGroupData data:ItemGroupDataSeq="94" ItemGroupOID="EX">
         <ItemData ItemOID="EX.STUDYID" Value="CDISCPILOT01"/>
         <ItemData ItemOID="EX.DOMAIN" Value="EX"/>
         <ItemData ItemOID="EX.USUBJID" Value="01-701-1440"/>
         <ItemData ItemOID="EX.EXSEQ" Value="3"/>
         <ItemData ItemOID="EX.EXTRT" Value="PLACEBO"/>
         <ItemData ItemOID="EX.EXDOSE" Value="0"/>
         <ItemData ItemOID="EX.EXDOSU" Value="mg"/>
         <ItemData ItemOID="EX.EXDOSFRM" Value="PATCH"/>
         <ItemData ItemOID="EX.EXDOSFRQ" Value="QD"/>
         <ItemData ItemOID="EX.EXROUTE" Value="TRANSDERMAL"/>
         <ItemData ItemOID="EX.VISITNUM" Value="12"/>
         <ItemData ItemOID="EX.VISIT" Value="WEEK 24"/>
         <ItemData ItemOID="EX.VISITDY" Value="168"/>
         <ItemData ItemOID="EX.EXSTDTC" Value="2014-01-23"/>
         <ItemData ItemOID="EX.EXENDTC" Value="2014-02-05"/>
         <ItemData ItemOID="EX.EXSTDY" Value="169"/>
         <ItemData ItemOID="EX.EXENDY" Value="182"/>
      </ItemGroupData>
      <ItemGroupData data:ItemGroupDataSeq="95" ItemGroupOID="EX">
         <ItemData ItemOID="EX.STUDYID" Value="CDISCPILOT01"/>
         <ItemData ItemOID="EX.DOMAIN" Value="EX"/>
         <ItemData ItemOID="EX.USUBJID" Value="01-701-1442"/>
         <ItemData ItemOID="EX.EXSEQ" Value="1"/>
         <ItemData ItemOID="EX.EXTRT" Value="XANOMELINE"/>
         <ItemData ItemOID="EX.EXDOSE" Value="54"/>
         <ItemData ItemOID="EX.EXDOSU" Value="mg"/>
         <ItemData ItemOID="EX.EXDOSFRM" Value="PATCH"/>
         <ItemData ItemOID="EX.EXDOSFRQ" Value="QD"/>
         <ItemData ItemOID="EX.EXROUTE" Value="TRANSDERMAL"/>
         <ItemData ItemOID="EX.VISITNUM" Value="3"/>
         <ItemData ItemOID="EX.VISIT" Value="BASELINE"/>
         <ItemData ItemOID="EX.VISITDY" Value="1"/>
         <ItemData ItemOID="EX.EXSTDTC" Value="2013-10-26"/>
         <ItemData ItemOID="EX.EXENDTC" Value="2013-11-09"/>
         <ItemData ItemOID="EX.EXSTDY" Value="1"/>
         <ItemData ItemOID="EX.EXENDY" Value="15"/>
      </ItemGroupData>
      <ItemGroupData data:ItemGroupDataSeq="96" ItemGroupOID="EX">
         <ItemData ItemOID="EX.STUDYID" Value="CDISCPILOT01"/>
         <ItemData ItemOID="EX.DOMAIN" Value="EX"/>
         <ItemData ItemOID="EX.USUBJID" Value="01-701-1442"/>
         <ItemData ItemOID="EX.EXSEQ" Value="2"/>
         <ItemData ItemOID="EX.EXTRT" Value="XANOMELINE"/>
         <ItemData ItemOID="EX.EXDOSE" Value="54"/>
         <ItemData ItemOID="EX.EXDOSU" Value="mg"/>
         <ItemData ItemOID="EX.EXDOSFRM" Value="PATCH"/>
         <ItemData ItemOID="EX.EXDOSFRQ" Value="QD"/>
         <ItemData ItemOID="EX.EXROUTE" Value="TRANSDERMAL"/>
         <ItemData ItemOID="EX.VISITNUM" Value="4"/>
         <ItemData ItemOID="EX.VISIT" Value="WEEK 2"/>
         <ItemData ItemOID="EX.VISITDY" Value="14"/>
         <ItemData ItemOID="EX.EXSTDTC" Value="2013-11-10"/>
         <ItemData ItemOID="EX.EXENDTC" Value="2014-04-17"/>
         <ItemData ItemOID="EX.EXSTDY" Value="16"/>
         <ItemData ItemOID="EX.EXENDY" Value="174"/>
      </ItemGroupData>
      <ItemGroupData data:ItemGroupDataSeq="97" ItemGroupOID="EX">
         <ItemData ItemOID="EX.STUDYID" Value="CDISCPILOT01"/>
         <ItemData ItemOID="EX.DOMAIN" Value="EX"/>
         <ItemData ItemOID="EX.USUBJID" Value="01-701-1442"/>
         <ItemData ItemOID="EX.EXSEQ" Value="3"/>
         <ItemData ItemOID="EX.EXTRT" Value="XANOMELINE"/>
         <ItemData ItemOID="EX.EXDOSE" Value="54"/>
         <ItemData ItemOID="EX.EXDOSU" Value="mg"/>
         <ItemData ItemOID="EX.EXDOSFRM" Value="PATCH"/>
         <ItemData ItemOID="EX.EXDOSFRQ" Value="QD"/>
         <ItemData ItemOID="EX.EXROUTE" Value="TRANSDERMAL"/>
         <ItemData ItemOID="EX.VISITNUM" Value="12"/>
         <ItemData ItemOID="EX.VISIT" Value="WEEK 24"/>
         <ItemData ItemOID="EX.VISITDY" Value="168"/>
         <ItemData ItemOID="EX.EXSTDTC" Value="2014-04-18"/>
         <ItemData ItemOID="EX.EXENDTC" Value="2014-04-26"/>
         <ItemData ItemOID="EX.EXSTDY" Value="175"/>
         <ItemData ItemOID="EX.EXENDY" Value="183"/>
      </ItemGroupData>
      <ItemGroupData data:ItemGroupDataSeq="98" ItemGroupOID="EX">
         <ItemData ItemOID="EX.STUDYID" Value="CDISCPILOT01"/>
         <ItemData ItemOID="EX.DOMAIN" Value="EX"/>
         <ItemData ItemOID="EX.USUBJID" Value="01-701-1444"/>
         <ItemData ItemOID="EX.EXSEQ" Value="1"/>
         <ItemData ItemOID="EX.EXTRT" Value="XANOMELINE"/>
         <ItemData ItemOID="EX.EXDOSE" Value="54"/>
         <ItemData ItemOID="EX.EXDOSU" Value="mg"/>
         <ItemData ItemOID="EX.EXDOSFRM" Value="PATCH"/>
         <ItemData ItemOID="EX.EXDOSFRQ" Value="QD"/>
         <ItemData ItemOID="EX.EXROUTE" Value="TRANSDERMAL"/>
         <ItemData ItemOID="EX.VISITNUM" Value="3"/>
         <ItemData ItemOID="EX.VISIT" Value="BASELINE"/>
         <ItemData ItemOID="EX.VISITDY" Value="1"/>
         <ItemData ItemOID="EX.EXSTDTC" Value="2013-01-05"/>
         <ItemData ItemOID="EX.EXENDTC" Value="2013-01-18"/>
         <ItemData ItemOID="EX.EXSTDY" Value="1"/>
         <ItemData ItemOID="EX.EXENDY" Value="14"/>
      </ItemGroupData>
      <ItemGroupData data:ItemGroupDataSeq="99" ItemGroupOID="EX">
         <ItemData ItemOID="EX.STUDYID" Value="CDISCPILOT01"/>
         <ItemData ItemOID="EX.DOMAIN" Value="EX"/>
         <ItemData ItemOID="EX.USUBJID" Value="01-701-1444"/>
         <ItemData ItemOID="EX.EXSEQ" Value="2"/>
         <ItemData ItemOID="EX.EXTRT" Value="XANOMELINE"/>
         <ItemData ItemOID="EX.EXDOSE" Value="81"/>
         <ItemData ItemOID="EX.EXDOSU" Value="mg"/>
         <ItemData ItemOID="EX.EXDOSFRM" Value="PATCH"/>
         <ItemData ItemOID="EX.EXDOSFRQ" Value="QD"/>
         <ItemData ItemOID="EX.EXROUTE" Value="TRANSDERMAL"/>
         <ItemData ItemOID="EX.VISITNUM" Value="4"/>
         <ItemData ItemOID="EX.VISIT" Value="WEEK 2"/>
         <ItemData ItemOID="EX.VISITDY" Value="14"/>
         <ItemData ItemOID="EX.EXSTDTC" Value="2013-01-19"/>
         <ItemData ItemOID="EX.EXENDTC" Value="2013-02-12"/>
         <ItemData ItemOID="EX.EXSTDY" Value="15"/>
         <ItemData ItemOID="EX.EXENDY" Value="39"/>
      </ItemGroupData>
      <ItemGroupData data:ItemGroupDataSeq="100" ItemGroupOID="EX">
         <ItemData ItemOID="EX.STUDYID" Value="CDISCPILOT01"/>
         <ItemData ItemOID="EX.DOMAIN" Value="EX"/>
         <ItemData ItemOID="EX.USUBJID" Value="01-702-1082"/>
         <ItemData ItemOID="EX.EXSEQ" Value="1"/>
         <ItemData ItemOID="EX.EXTRT" Value="XANOMELINE"/>
         <ItemData ItemOID="EX.EXDOSE" Value="54"/>
         <ItemData ItemOID="EX.EXDOSU" Value="mg"/>
         <ItemData ItemOID="EX.EXDOSFRM" Value="PATCH"/>
         <ItemData ItemOID="EX.EXDOSFRQ" Value="QD"/>
         <ItemData ItemOID="EX.EXROUTE" Value="TRANSDERMAL"/>
         <ItemData ItemOID="EX.VISITNUM" Value="3"/>
         <ItemData ItemOID="EX.VISIT" Value="BASELINE"/>
         <ItemData ItemOID="EX.VISITDY" Value="1"/>
         <ItemData ItemOID="EX.EXSTDTC" Value="2013-07-26"/>
         <ItemData ItemOID="EX.EXENDTC" Value="2013-08-08"/>
         <ItemData ItemOID="EX.EXSTDY" Value="1"/>
         <ItemData ItemOID="EX.EXENDY" Value="14"/>
      </ItemGroupData>
      <ItemGroupData data:ItemGroupDataSeq="101" ItemGroupOID="EX">
         <ItemData ItemOID="EX.STUDYID" Value="CDISCPILOT01"/>
         <ItemData ItemOID="EX.DOMAIN" Value="EX"/>
         <ItemData ItemOID="EX.USUBJID" Value="01-702-1082"/>
         <ItemData ItemOID="EX.EXSEQ" Value="2"/>
         <ItemData ItemOID="EX.EXTRT" Value="XANOMELINE"/>
         <ItemData ItemOID="EX.EXDOSE" Value="54"/>
         <ItemData ItemOID="EX.EXDOSU" Value="mg"/>
         <ItemData ItemOID="EX.EXDOSFRM" Value="PATCH"/>
         <ItemData ItemOID="EX.EXDOSFRQ" Value="QD"/>
         <ItemData ItemOID="EX.EXROUTE" Value="TRANSDERMAL"/>
         <ItemData ItemOID="EX.VISITNUM" Value="4"/>
         <ItemData ItemOID="EX.VISIT" Value="WEEK 2"/>
         <ItemData ItemOID="EX.VISITDY" Value="14"/>
         <ItemData ItemOID="EX.EXSTDTC" Value="2013-08-09"/>
         <ItemData ItemOID="EX.EXENDTC" Value="2013-10-13"/>
         <ItemData ItemOID="EX.EXSTDY" Value="15"/>
         <ItemData ItemOID="EX.EXENDY" Value="80"/>
      </ItemGroupData>
      <ItemGroupData data:ItemGroupDataSeq="102" ItemGroupOID="EX">
         <ItemData ItemOID="EX.STUDYID" Value="CDISCPILOT01"/>
         <ItemData ItemOID="EX.DOMAIN" Value="EX"/>
         <ItemData ItemOID="EX.USUBJID" Value="01-703-1042"/>
         <ItemData ItemOID="EX.EXSEQ" Value="1"/>
         <ItemData ItemOID="EX.EXTRT" Value="PLACEBO"/>
         <ItemData ItemOID="EX.EXDOSE" Value="0"/>
         <ItemData ItemOID="EX.EXDOSU" Value="mg"/>
         <ItemData ItemOID="EX.EXDOSFRM" Value="PATCH"/>
         <ItemData ItemOID="EX.EXDOSFRQ" Value="QD"/>
         <ItemData ItemOID="EX.EXROUTE" Value="TRANSDERMAL"/>
         <ItemData ItemOID="EX.VISITNUM" Value="3"/>
         <ItemData ItemOID="EX.VISIT" Value="BASELINE"/>
         <ItemData ItemOID="EX.VISITDY" Value="1"/>
         <ItemData ItemOID="EX.EXSTDTC" Value="2013-03-02"/>
         <ItemData ItemOID="EX.EXENDTC" Value="2013-03-14"/>
         <ItemData ItemOID="EX.EXSTDY" Value="1"/>
         <ItemData ItemOID="EX.EXENDY" Value="13"/>
      </ItemGroupData>
      <ItemGroupData data:ItemGroupDataSeq="103" ItemGroupOID="EX">
         <ItemData ItemOID="EX.STUDYID" Value="CDISCPILOT01"/>
         <ItemData ItemOID="EX.DOMAIN" Value="EX"/>
         <ItemData ItemOID="EX.USUBJID" Value="01-703-1042"/>
         <ItemData ItemOID="EX.EXSEQ" Value="2"/>
         <ItemData ItemOID="EX.EXTRT" Value="PLACEBO"/>
         <ItemData ItemOID="EX.EXDOSE" Value="0"/>
         <ItemData ItemOID="EX.EXDOSU" Value="mg"/>
         <ItemData ItemOID="EX.EXDOSFRM" Value="PATCH"/>
         <ItemData ItemOID="EX.EXDOSFRQ" Value="QD"/>
         <ItemData ItemOID="EX.EXROUTE" Value="TRANSDERMAL"/>
         <ItemData ItemOID="EX.VISITNUM" Value="4"/>
         <ItemData ItemOID="EX.VISIT" Value="WEEK 2"/>
         <ItemData ItemOID="EX.VISITDY" Value="14"/>
         <ItemData ItemOID="EX.EXSTDTC" Value="2013-03-15"/>
         <ItemData ItemOID="EX.EXENDTC" Value="2013-08-09"/>
         <ItemData ItemOID="EX.EXSTDY" Value="14"/>
         <ItemData ItemOID="EX.EXENDY" Value="161"/>
      </ItemGroupData>
      <ItemGroupData data:ItemGroupDataSeq="104" ItemGroupOID="EX">
         <ItemData ItemOID="EX.STUDYID" Value="CDISCPILOT01"/>
         <ItemData ItemOID="EX.DOMAIN" Value="EX"/>
         <ItemData ItemOID="EX.USUBJID" Value="01-703-1042"/>
         <ItemData ItemOID="EX.EXSEQ" Value="3"/>
         <ItemData ItemOID="EX.EXTRT" Value="PLACEBO"/>
         <ItemData ItemOID="EX.EXDOSE" Value="0"/>
         <ItemData ItemOID="EX.EXDOSU" Value="mg"/>
         <ItemData ItemOID="EX.EXDOSFRM" Value="PATCH"/>
         <ItemData ItemOID="EX.EXDOSFRQ" Value="QD"/>
         <ItemData ItemOID="EX.EXROUTE" Value="TRANSDERMAL"/>
         <ItemData ItemOID="EX.VISITNUM" Value="12"/>
         <ItemData ItemOID="EX.VISIT" Value="WEEK 24"/>
         <ItemData ItemOID="EX.VISITDY" Value="168"/>
         <ItemData ItemOID="EX.EXSTDTC" Value="2013-08-10"/>
         <ItemData ItemOID="EX.EXENDTC" Value="2013-08-31"/>
         <ItemData ItemOID="EX.EXSTDY" Value="162"/>
         <ItemData ItemOID="EX.EXENDY" Value="183"/>
      </ItemGroupData>
      <ItemGroupData data:ItemGroupDataSeq="105" ItemGroupOID="EX">
         <ItemData ItemOID="EX.STUDYID" Value="CDISCPILOT01"/>
         <ItemData ItemOID="EX.DOMAIN" Value="EX"/>
         <ItemData ItemOID="EX.USUBJID" Value="01-703-1076"/>
         <ItemData ItemOID="EX.EXSEQ" Value="1"/>
         <ItemData ItemOID="EX.EXTRT" Value="XANOMELINE"/>
         <ItemData ItemOID="EX.EXDOSE" Value="54"/>
         <ItemData ItemOID="EX.EXDOSU" Value="mg"/>
         <ItemData ItemOID="EX.EXDOSFRM" Value="PATCH"/>
         <ItemData ItemOID="EX.EXDOSFRQ" Value="QD"/>
         <ItemData ItemOID="EX.EXROUTE" Value="TRANSDERMAL"/>
         <ItemData ItemOID="EX.VISITNUM" Value="3"/>
         <ItemData ItemOID="EX.VISIT" Value="BASELINE"/>
         <ItemData ItemOID="EX.VISITDY" Value="1"/>
         <ItemData ItemOID="EX.EXSTDTC" Value="2013-10-25"/>
         <ItemData ItemOID="EX.EXENDTC" Value="2013-11-06"/>
         <ItemData ItemOID="EX.EXSTDY" Value="1"/>
         <ItemData ItemOID="EX.EXENDY" Value="13"/>
      </ItemGroupData>
      <ItemGroupData data:ItemGroupDataSeq="106" ItemGroupOID="EX">
         <ItemData ItemOID="EX.STUDYID" Value="CDISCPILOT01"/>
         <ItemData ItemOID="EX.DOMAIN" Value="EX"/>
         <ItemData ItemOID="EX.USUBJID" Value="01-703-1076"/>
         <ItemData ItemOID="EX.EXSEQ" Value="2"/>
         <ItemData ItemOID="EX.EXTRT" Value="XANOMELINE"/>
         <ItemData ItemOID="EX.EXDOSE" Value="81"/>
         <ItemData ItemOID="EX.EXDOSU" Value="mg"/>
         <ItemData ItemOID="EX.EXDOSFRM" Value="PATCH"/>
         <ItemData ItemOID="EX.EXDOSFRQ" Value="QD"/>
         <ItemData ItemOID="EX.EXROUTE" Value="TRANSDERMAL"/>
         <ItemData ItemOID="EX.VISITNUM" Value="4"/>
         <ItemData ItemOID="EX.VISIT" Value="WEEK 2"/>
         <ItemData ItemOID="EX.VISITDY" Value="14"/>
         <ItemData ItemOID="EX.EXSTDTC" Value="2013-11-07"/>
         <ItemData ItemOID="EX.EXENDTC" Value="2013-12-24"/>
         <ItemData ItemOID="EX.EXSTDY" Value="14"/>
         <ItemData ItemOID="EX.EXENDY" Value="61"/>
      </ItemGroupData>
      <ItemGroupData data:ItemGroupDataSeq="107" ItemGroupOID="EX">
         <ItemData ItemOID="EX.STUDYID" Value="CDISCPILOT01"/>
         <ItemData ItemOID="EX.DOMAIN" Value="EX"/>
         <ItemData ItemOID="EX.USUBJID" Value="01-703-1086"/>
         <ItemData ItemOID="EX.EXSEQ" Value="1"/>
         <ItemData ItemOID="EX.EXTRT" Value="XANOMELINE"/>
         <ItemData ItemOID="EX.EXDOSE" Value="54"/>
         <ItemData ItemOID="EX.EXDOSU" Value="mg"/>
         <ItemData ItemOID="EX.EXDOSFRM" Value="PATCH"/>
         <ItemData ItemOID="EX.EXDOSFRQ" Value="QD"/>
         <ItemData ItemOID="EX.EXROUTE" Value="TRANSDERMAL"/>
         <ItemData ItemOID="EX.VISITNUM" Value="3"/>
         <ItemData ItemOID="EX.VISIT" Value="BASELINE"/>
         <ItemData ItemOID="EX.VISITDY" Value="1"/>
         <ItemData ItemOID="EX.EXSTDTC" Value="2012-09-02"/>
         <ItemData ItemOID="EX.EXENDTC" Value="2012-09-16"/>
         <ItemData ItemOID="EX.EXSTDY" Value="1"/>
         <ItemData ItemOID="EX.EXENDY" Value="15"/>
      </ItemGroupData>
      <ItemGroupData data:ItemGroupDataSeq="108" ItemGroupOID="EX">
         <ItemData ItemOID="EX.STUDYID" Value="CDISCPILOT01"/>
         <ItemData ItemOID="EX.DOMAIN" Value="EX"/>
         <ItemData ItemOID="EX.USUBJID" Value="01-703-1086"/>
         <ItemData ItemOID="EX.EXSEQ" Value="2"/>
         <ItemData ItemOID="EX.EXTRT" Value="XANOMELINE"/>
         <ItemData ItemOID="EX.EXDOSE" Value="54"/>
         <ItemData ItemOID="EX.EXDOSU" Value="mg"/>
         <ItemData ItemOID="EX.EXDOSFRM" Value="PATCH"/>
         <ItemData ItemOID="EX.EXDOSFRQ" Value="QD"/>
         <ItemData ItemOID="EX.EXROUTE" Value="TRANSDERMAL"/>
         <ItemData ItemOID="EX.VISITNUM" Value="4"/>
         <ItemData ItemOID="EX.VISIT" Value="WEEK 2"/>
         <ItemData ItemOID="EX.VISITDY" Value="14"/>
         <ItemData ItemOID="EX.EXSTDTC" Value="2012-09-17"/>
         <ItemData ItemOID="EX.EXENDTC" Value="2012-12-04"/>
         <ItemData ItemOID="EX.EXSTDY" Value="16"/>
         <ItemData ItemOID="EX.EXENDY" Value="94"/>
      </ItemGroupData>
      <ItemGroupData data:ItemGroupDataSeq="109" ItemGroupOID="EX">
         <ItemData ItemOID="EX.STUDYID" Value="CDISCPILOT01"/>
         <ItemData ItemOID="EX.DOMAIN" Value="EX"/>
         <ItemData ItemOID="EX.USUBJID" Value="01-703-1096"/>
         <ItemData ItemOID="EX.EXSEQ" Value="1"/>
         <ItemData ItemOID="EX.EXTRT" Value="PLACEBO"/>
         <ItemData ItemOID="EX.EXDOSE" Value="0"/>
         <ItemData ItemOID="EX.EXDOSU" Value="mg"/>
         <ItemData ItemOID="EX.EXDOSFRM" Value="PATCH"/>
         <ItemData ItemOID="EX.EXDOSFRQ" Value="QD"/>
         <ItemData ItemOID="EX.EXROUTE" Value="TRANSDERMAL"/>
         <ItemData ItemOID="EX.VISITNUM" Value="3"/>
         <ItemData ItemOID="EX.VISIT" Value="BASELINE"/>
         <ItemData ItemOID="EX.VISITDY" Value="1"/>
         <ItemData ItemOID="EX.EXSTDTC" Value="2013-01-25"/>
         <ItemData ItemOID="EX.EXENDTC" Value="2013-02-09"/>
         <ItemData ItemOID="EX.EXSTDY" Value="1"/>
         <ItemData ItemOID="EX.EXENDY" Value="16"/>
      </ItemGroupData>
      <ItemGroupData data:ItemGroupDataSeq="110" ItemGroupOID="EX">
         <ItemData ItemOID="EX.STUDYID" Value="CDISCPILOT01"/>
         <ItemData ItemOID="EX.DOMAIN" Value="EX"/>
         <ItemData ItemOID="EX.USUBJID" Value="01-703-1096"/>
         <ItemData ItemOID="EX.EXSEQ" Value="2"/>
         <ItemData ItemOID="EX.EXTRT" Value="PLACEBO"/>
         <ItemData ItemOID="EX.EXDOSE" Value="0"/>
         <ItemData ItemOID="EX.EXDOSU" Value="mg"/>
         <ItemData ItemOID="EX.EXDOSFRM" Value="PATCH"/>
         <ItemData ItemOID="EX.EXDOSFRQ" Value="QD"/>
         <ItemData ItemOID="EX.EXROUTE" Value="TRANSDERMAL"/>
         <ItemData ItemOID="EX.VISITNUM" Value="4"/>
         <ItemData ItemOID="EX.VISIT" Value="WEEK 2"/>
         <ItemData ItemOID="EX.VISITDY" Value="14"/>
         <ItemData ItemOID="EX.EXSTDTC" Value="2013-02-10"/>
         <ItemData ItemOID="EX.EXENDTC" Value="2013-03-16"/>
         <ItemData ItemOID="EX.EXSTDY" Value="17"/>
         <ItemData ItemOID="EX.EXENDY" Value="51"/>
      </ItemGroupData>
      <ItemGroupData data:ItemGroupDataSeq="111" ItemGroupOID="EX">
         <ItemData ItemOID="EX.STUDYID" Value="CDISCPILOT01"/>
         <ItemData ItemOID="EX.DOMAIN" Value="EX"/>
         <ItemData ItemOID="EX.USUBJID" Value="01-703-1100"/>
         <ItemData ItemOID="EX.EXSEQ" Value="1"/>
         <ItemData ItemOID="EX.EXTRT" Value="PLACEBO"/>
         <ItemData ItemOID="EX.EXDOSE" Value="0"/>
         <ItemData ItemOID="EX.EXDOSU" Value="mg"/>
         <ItemData ItemOID="EX.EXDOSFRM" Value="PATCH"/>
         <ItemData ItemOID="EX.EXDOSFRQ" Value="QD"/>
         <ItemData ItemOID="EX.EXROUTE" Value="TRANSDERMAL"/>
         <ItemData ItemOID="EX.VISITNUM" Value="3"/>
         <ItemData ItemOID="EX.VISIT" Value="BASELINE"/>
         <ItemData ItemOID="EX.VISITDY" Value="1"/>
         <ItemData ItemOID="EX.EXSTDTC" Value="2013-03-13"/>
         <ItemData ItemOID="EX.EXENDTC" Value="2013-03-29"/>
         <ItemData ItemOID="EX.EXSTDY" Value="1"/>
         <ItemData ItemOID="EX.EXENDY" Value="17"/>
      </ItemGroupData>
      <ItemGroupData data:ItemGroupDataSeq="112" ItemGroupOID="EX">
         <ItemData ItemOID="EX.STUDYID" Value="CDISCPILOT01"/>
         <ItemData ItemOID="EX.DOMAIN" Value="EX"/>
         <ItemData ItemOID="EX.USUBJID" Value="01-703-1100"/>
         <ItemData ItemOID="EX.EXSEQ" Value="2"/>
         <ItemData ItemOID="EX.EXTRT" Value="PLACEBO"/>
         <ItemData ItemOID="EX.EXDOSE" Value="0"/>
         <ItemData ItemOID="EX.EXDOSU" Value="mg"/>
         <ItemData ItemOID="EX.EXDOSFRM" Value="PATCH"/>
         <ItemData ItemOID="EX.EXDOSFRQ" Value="QD"/>
         <ItemData ItemOID="EX.EXROUTE" Value="TRANSDERMAL"/>
         <ItemData ItemOID="EX.VISITNUM" Value="4"/>
         <ItemData ItemOID="EX.VISIT" Value="WEEK 2"/>
         <ItemData ItemOID="EX.VISITDY" Value="14"/>
         <ItemData ItemOID="EX.EXSTDTC" Value="2013-03-30"/>
         <ItemData ItemOID="EX.EXENDTC" Value="2013-08-28"/>
         <ItemData ItemOID="EX.EXSTDY" Value="18"/>
         <ItemData ItemOID="EX.EXENDY" Value="169"/>
      </ItemGroupData>
      <ItemGroupData data:ItemGroupDataSeq="113" ItemGroupOID="EX">
         <ItemData ItemOID="EX.STUDYID" Value="CDISCPILOT01"/>
         <ItemData ItemOID="EX.DOMAIN" Value="EX"/>
         <ItemData ItemOID="EX.USUBJID" Value="01-703-1100"/>
         <ItemData ItemOID="EX.EXSEQ" Value="3"/>
         <ItemData ItemOID="EX.EXTRT" Value="PLACEBO"/>
         <ItemData ItemOID="EX.EXDOSE" Value="0"/>
         <ItemData ItemOID="EX.EXDOSU" Value="mg"/>
         <ItemData ItemOID="EX.EXDOSFRM" Value="PATCH"/>
         <ItemData ItemOID="EX.EXDOSFRQ" Value="QD"/>
         <ItemData ItemOID="EX.EXROUTE" Value="TRANSDERMAL"/>
         <ItemData ItemOID="EX.VISITNUM" Value="12"/>
         <ItemData ItemOID="EX.VISIT" Value="WEEK 24"/>
         <ItemData ItemOID="EX.VISITDY" Value="168"/>
         <ItemData ItemOID="EX.EXSTDTC" Value="2013-08-29"/>
         <ItemData ItemOID="EX.EXENDTC" Value="2013-09-14"/>
         <ItemData ItemOID="EX.EXSTDY" Value="170"/>
         <ItemData ItemOID="EX.EXENDY" Value="186"/>
      </ItemGroupData>
      <ItemGroupData data:ItemGroupDataSeq="114" ItemGroupOID="EX">
         <ItemData ItemOID="EX.STUDYID" Value="CDISCPILOT01"/>
         <ItemData ItemOID="EX.DOMAIN" Value="EX"/>
         <ItemData ItemOID="EX.USUBJID" Value="01-703-1119"/>
         <ItemData ItemOID="EX.EXSEQ" Value="1"/>
         <ItemData ItemOID="EX.EXTRT" Value="XANOMELINE"/>
         <ItemData ItemOID="EX.EXDOSE" Value="54"/>
         <ItemData ItemOID="EX.EXDOSU" Value="mg"/>
         <ItemData ItemOID="EX.EXDOSFRM" Value="PATCH"/>
         <ItemData ItemOID="EX.EXDOSFRQ" Value="QD"/>
         <ItemData ItemOID="EX.EXROUTE" Value="TRANSDERMAL"/>
         <ItemData ItemOID="EX.VISITNUM" Value="3"/>
         <ItemData ItemOID="EX.VISIT" Value="BASELINE"/>
         <ItemData ItemOID="EX.VISITDY" Value="1"/>
         <ItemData ItemOID="EX.EXSTDTC" Value="2013-02-20"/>
         <ItemData ItemOID="EX.EXENDTC" Value="2013-03-10"/>
         <ItemData ItemOID="EX.EXSTDY" Value="1"/>
         <ItemData ItemOID="EX.EXENDY" Value="19"/>
      </ItemGroupData>
      <ItemGroupData data:ItemGroupDataSeq="115" ItemGroupOID="EX">
         <ItemData ItemOID="EX.STUDYID" Value="CDISCPILOT01"/>
         <ItemData ItemOID="EX.DOMAIN" Value="EX"/>
         <ItemData ItemOID="EX.USUBJID" Value="01-703-1119"/>
         <ItemData ItemOID="EX.EXSEQ" Value="2"/>
         <ItemData ItemOID="EX.EXTRT" Value="XANOMELINE"/>
         <ItemData ItemOID="EX.EXDOSE" Value="54"/>
         <ItemData ItemOID="EX.EXDOSU" Value="mg"/>
         <ItemData ItemOID="EX.EXDOSFRM" Value="PATCH"/>
         <ItemData ItemOID="EX.EXDOSFRQ" Value="QD"/>
         <ItemData ItemOID="EX.EXROUTE" Value="TRANSDERMAL"/>
         <ItemData ItemOID="EX.VISITNUM" Value="4"/>
         <ItemData ItemOID="EX.VISIT" Value="WEEK 2"/>
         <ItemData ItemOID="EX.VISITDY" Value="14"/>
         <ItemData ItemOID="EX.EXSTDTC" Value="2013-03-11"/>
         <ItemData ItemOID="EX.EXENDTC" Value="2013-06-13"/>
         <ItemData ItemOID="EX.EXSTDY" Value="20"/>
         <ItemData ItemOID="EX.EXENDY" Value="114"/>
      </ItemGroupData>
      <ItemGroupData data:ItemGroupDataSeq="116" ItemGroupOID="EX">
         <ItemData ItemOID="EX.STUDYID" Value="CDISCPILOT01"/>
         <ItemData ItemOID="EX.DOMAIN" Value="EX"/>
         <ItemData ItemOID="EX.USUBJID" Value="01-703-1175"/>
         <ItemData ItemOID="EX.EXSEQ" Value="1"/>
         <ItemData ItemOID="EX.EXTRT" Value="PLACEBO"/>
         <ItemData ItemOID="EX.EXDOSE" Value="0"/>
         <ItemData ItemOID="EX.EXDOSU" Value="mg"/>
         <ItemData ItemOID="EX.EXDOSFRM" Value="PATCH"/>
         <ItemData ItemOID="EX.EXDOSFRQ" Value="QD"/>
         <ItemData ItemOID="EX.EXROUTE" Value="TRANSDERMAL"/>
         <ItemData ItemOID="EX.VISITNUM" Value="3"/>
         <ItemData ItemOID="EX.VISIT" Value="BASELINE"/>
         <ItemData ItemOID="EX.VISITDY" Value="1"/>
         <ItemData ItemOID="EX.EXSTDTC" Value="2013-12-20"/>
         <ItemData ItemOID="EX.EXENDTC" Value="2013-12-26"/>
         <ItemData ItemOID="EX.EXSTDY" Value="1"/>
         <ItemData ItemOID="EX.EXENDY" Value="7"/>
      </ItemGroupData>
      <ItemGroupData data:ItemGroupDataSeq="117" ItemGroupOID="EX">
         <ItemData ItemOID="EX.STUDYID" Value="CDISCPILOT01"/>
         <ItemData ItemOID="EX.DOMAIN" Value="EX"/>
         <ItemData ItemOID="EX.USUBJID" Value="01-703-1182"/>
         <ItemData ItemOID="EX.EXSEQ" Value="1"/>
         <ItemData ItemOID="EX.EXTRT" Value="XANOMELINE"/>
         <ItemData ItemOID="EX.EXDOSE" Value="54"/>
         <ItemData ItemOID="EX.EXDOSU" Value="mg"/>
         <ItemData ItemOID="EX.EXDOSFRM" Value="PATCH"/>
         <ItemData ItemOID="EX.EXDOSFRQ" Value="QD"/>
         <ItemData ItemOID="EX.EXROUTE" Value="TRANSDERMAL"/>
         <ItemData ItemOID="EX.VISITNUM" Value="3"/>
         <ItemData ItemOID="EX.VISIT" Value="BASELINE"/>
         <ItemData ItemOID="EX.VISITDY" Value="1"/>
         <ItemData ItemOID="EX.EXSTDTC" Value="2013-10-17"/>
         <ItemData ItemOID="EX.EXENDTC" Value="2013-10-31"/>
         <ItemData ItemOID="EX.EXSTDY" Value="1"/>
         <ItemData ItemOID="EX.EXENDY" Value="15"/>
      </ItemGroupData>
      <ItemGroupData data:ItemGroupDataSeq="118" ItemGroupOID="EX">
         <ItemData ItemOID="EX.STUDYID" Value="CDISCPILOT01"/>
         <ItemData ItemOID="EX.DOMAIN" Value="EX"/>
         <ItemData ItemOID="EX.USUBJID" Value="01-703-1182"/>
         <ItemData ItemOID="EX.EXSEQ" Value="2"/>
         <ItemData ItemOID="EX.EXTRT" Value="XANOMELINE"/>
         <ItemData ItemOID="EX.EXDOSE" Value="54"/>
         <ItemData ItemOID="EX.EXDOSU" Value="mg"/>
         <ItemData ItemOID="EX.EXDOSFRM" Value="PATCH"/>
         <ItemData ItemOID="EX.EXDOSFRQ" Value="QD"/>
         <ItemData ItemOID="EX.EXROUTE" Value="TRANSDERMAL"/>
         <ItemData ItemOID="EX.VISITNUM" Value="4"/>
         <ItemData ItemOID="EX.VISIT" Value="WEEK 2"/>
         <ItemData ItemOID="EX.VISITDY" Value="14"/>
         <ItemData ItemOID="EX.EXSTDTC" Value="2013-11-01"/>
         <ItemData ItemOID="EX.EXENDTC" Value="2013-12-11"/>
         <ItemData ItemOID="EX.EXSTDY" Value="16"/>
         <ItemData ItemOID="EX.EXENDY" Value="56"/>
      </ItemGroupData>
      <ItemGroupData data:ItemGroupDataSeq="119" ItemGroupOID="EX">
         <ItemData ItemOID="EX.STUDYID" Value="CDISCPILOT01"/>
         <ItemData ItemOID="EX.DOMAIN" Value="EX"/>
         <ItemData ItemOID="EX.USUBJID" Value="01-703-1197"/>
         <ItemData ItemOID="EX.EXSEQ" Value="1"/>
         <ItemData ItemOID="EX.EXTRT" Value="XANOMELINE"/>
         <ItemData ItemOID="EX.EXDOSE" Value="54"/>
         <ItemData ItemOID="EX.EXDOSU" Value="mg"/>
         <ItemData ItemOID="EX.EXDOSFRM" Value="PATCH"/>
         <ItemData ItemOID="EX.EXDOSFRQ" Value="QD"/>
         <ItemData ItemOID="EX.EXROUTE" Value="TRANSDERMAL"/>
         <ItemData ItemOID="EX.VISITNUM" Value="3"/>
         <ItemData ItemOID="EX.VISIT" Value="BASELINE"/>
         <ItemData ItemOID="EX.VISITDY" Value="1"/>
         <ItemData ItemOID="EX.EXSTDTC" Value="2013-06-16"/>
         <ItemData ItemOID="EX.EXENDTC" Value="2013-06-29"/>
         <ItemData ItemOID="EX.EXSTDY" Value="1"/>
         <ItemData ItemOID="EX.EXENDY" Value="14"/>
      </ItemGroupData>
      <ItemGroupData data:ItemGroupDataSeq="120" ItemGroupOID="EX">
         <ItemData ItemOID="EX.STUDYID" Value="CDISCPILOT01"/>
         <ItemData ItemOID="EX.DOMAIN" Value="EX"/>
         <ItemData ItemOID="EX.USUBJID" Value="01-703-1210"/>
         <ItemData ItemOID="EX.EXSEQ" Value="1"/>
         <ItemData ItemOID="EX.EXTRT" Value="PLACEBO"/>
         <ItemData ItemOID="EX.EXDOSE" Value="0"/>
         <ItemData ItemOID="EX.EXDOSU" Value="mg"/>
         <ItemData ItemOID="EX.EXDOSFRM" Value="PATCH"/>
         <ItemData ItemOID="EX.EXDOSFRQ" Value="QD"/>
         <ItemData ItemOID="EX.EXROUTE" Value="TRANSDERMAL"/>
         <ItemData ItemOID="EX.VISITNUM" Value="3"/>
         <ItemData ItemOID="EX.VISIT" Value="BASELINE"/>
         <ItemData ItemOID="EX.VISITDY" Value="1"/>
         <ItemData ItemOID="EX.EXSTDTC" Value="2013-03-16"/>
         <ItemData ItemOID="EX.EXENDTC" Value="2013-03-30"/>
         <ItemData ItemOID="EX.EXSTDY" Value="1"/>
         <ItemData ItemOID="EX.EXENDY" Value="15"/>
      </ItemGroupData>
      <ItemGroupData data:ItemGroupDataSeq="121" ItemGroupOID="EX">
         <ItemData ItemOID="EX.STUDYID" Value="CDISCPILOT01"/>
         <ItemData ItemOID="EX.DOMAIN" Value="EX"/>
         <ItemData ItemOID="EX.USUBJID" Value="01-703-1210"/>
         <ItemData ItemOID="EX.EXSEQ" Value="2"/>
         <ItemData ItemOID="EX.EXTRT" Value="PLACEBO"/>
         <ItemData ItemOID="EX.EXDOSE" Value="0"/>
         <ItemData ItemOID="EX.EXDOSU" Value="mg"/>
         <ItemData ItemOID="EX.EXDOSFRM" Value="PATCH"/>
         <ItemData ItemOID="EX.EXDOSFRQ" Value="QD"/>
         <ItemData ItemOID="EX.EXROUTE" Value="TRANSDERMAL"/>
         <ItemData ItemOID="EX.VISITNUM" Value="4"/>
         <ItemData ItemOID="EX.VISIT" Value="WEEK 2"/>
         <ItemData ItemOID="EX.VISITDY" Value="14"/>
         <ItemData ItemOID="EX.EXSTDTC" Value="2013-03-31"/>
         <ItemData ItemOID="EX.EXENDTC" Value="2013-08-24"/>
         <ItemData ItemOID="EX.EXSTDY" Value="16"/>
         <ItemData ItemOID="EX.EXENDY" Value="162"/>
      </ItemGroupData>
      <ItemGroupData data:ItemGroupDataSeq="122" ItemGroupOID="EX">
         <ItemData ItemOID="EX.STUDYID" Value="CDISCPILOT01"/>
         <ItemData ItemOID="EX.DOMAIN" Value="EX"/>
         <ItemData ItemOID="EX.USUBJID" Value="01-703-1210"/>
         <ItemData ItemOID="EX.EXSEQ" Value="3"/>
         <ItemData ItemOID="EX.EXTRT" Value="PLACEBO"/>
         <ItemData ItemOID="EX.EXDOSE" Value="0"/>
         <ItemData ItemOID="EX.EXDOSU" Value="mg"/>
         <ItemData ItemOID="EX.EXDOSFRM" Value="PATCH"/>
         <ItemData ItemOID="EX.EXDOSFRQ" Value="QD"/>
         <ItemData ItemOID="EX.EXROUTE" Value="TRANSDERMAL"/>
         <ItemData ItemOID="EX.VISITNUM" Value="12"/>
         <ItemData ItemOID="EX.VISIT" Value="WEEK 24"/>
         <ItemData ItemOID="EX.VISITDY" Value="168"/>
         <ItemData ItemOID="EX.EXSTDTC" Value="2013-08-25"/>
         <ItemData ItemOID="EX.EXENDTC" Value="2013-09-06"/>
         <ItemData ItemOID="EX.EXSTDY" Value="163"/>
         <ItemData ItemOID="EX.EXENDY" Value="175"/>
      </ItemGroupData>
      <ItemGroupData data:ItemGroupDataSeq="123" ItemGroupOID="EX">
         <ItemData ItemOID="EX.STUDYID" Value="CDISCPILOT01"/>
         <ItemData ItemOID="EX.DOMAIN" Value="EX"/>
         <ItemData ItemOID="EX.USUBJID" Value="01-703-1258"/>
         <ItemData ItemOID="EX.EXSEQ" Value="1"/>
         <ItemData ItemOID="EX.EXTRT" Value="XANOMELINE"/>
         <ItemData ItemOID="EX.EXDOSE" Value="54"/>
         <ItemData ItemOID="EX.EXDOSU" Value="mg"/>
         <ItemData ItemOID="EX.EXDOSFRM" Value="PATCH"/>
         <ItemData ItemOID="EX.EXDOSFRQ" Value="QD"/>
         <ItemData ItemOID="EX.EXROUTE" Value="TRANSDERMAL"/>
         <ItemData ItemOID="EX.VISITNUM" Value="3"/>
         <ItemData ItemOID="EX.VISIT" Value="BASELINE"/>
         <ItemData ItemOID="EX.VISITDY" Value="1"/>
         <ItemData ItemOID="EX.EXSTDTC" Value="2012-07-20"/>
         <ItemData ItemOID="EX.EXENDTC" Value="2012-08-01"/>
         <ItemData ItemOID="EX.EXSTDY" Value="1"/>
         <ItemData ItemOID="EX.EXENDY" Value="13"/>
      </ItemGroupData>
      <ItemGroupData data:ItemGroupDataSeq="124" ItemGroupOID="EX">
         <ItemData ItemOID="EX.STUDYID" Value="CDISCPILOT01"/>
         <ItemData ItemOID="EX.DOMAIN" Value="EX"/>
         <ItemData ItemOID="EX.USUBJID" Value="01-703-1258"/>
         <ItemData ItemOID="EX.EXSEQ" Value="2"/>
         <ItemData ItemOID="EX.EXTRT" Value="XANOMELINE"/>
         <ItemData ItemOID="EX.EXDOSE" Value="81"/>
         <ItemData ItemOID="EX.EXDOSU" Value="mg"/>
         <ItemData ItemOID="EX.EXDOSFRM" Value="PATCH"/>
         <ItemData ItemOID="EX.EXDOSFRQ" Value="QD"/>
         <ItemData ItemOID="EX.EXROUTE" Value="TRANSDERMAL"/>
         <ItemData ItemOID="EX.VISITNUM" Value="4"/>
         <ItemData ItemOID="EX.VISIT" Value="WEEK 2"/>
         <ItemData ItemOID="EX.VISITDY" Value="14"/>
         <ItemData ItemOID="EX.EXSTDTC" Value="2012-08-02"/>
         <ItemData ItemOID="EX.EXENDTC" Value="2012-12-31"/>
         <ItemData ItemOID="EX.EXSTDY" Value="14"/>
         <ItemData ItemOID="EX.EXENDY" Value="165"/>
      </ItemGroupData>
      <ItemGroupData data:ItemGroupDataSeq="125" ItemGroupOID="EX">
         <ItemData ItemOID="EX.STUDYID" Value="CDISCPILOT01"/>
         <ItemData ItemOID="EX.DOMAIN" Value="EX"/>
         <ItemData ItemOID="EX.USUBJID" Value="01-703-1258"/>
         <ItemData ItemOID="EX.EXSEQ" Value="3"/>
         <ItemData ItemOID="EX.EXTRT" Value="XANOMELINE"/>
         <ItemData ItemOID="EX.EXDOSE" Value="54"/>
         <ItemData ItemOID="EX.EXDOSU" Value="mg"/>
         <ItemData ItemOID="EX.EXDOSFRM" Value="PATCH"/>
         <ItemData ItemOID="EX.EXDOSFRQ" Value="QD"/>
         <ItemData ItemOID="EX.EXROUTE" Value="TRANSDERMAL"/>
         <ItemData ItemOID="EX.VISITNUM" Value="12"/>
         <ItemData ItemOID="EX.VISIT" Value="WEEK 24"/>
         <ItemData ItemOID="EX.VISITDY" Value="168"/>
         <ItemData ItemOID="EX.EXSTDTC" Value="2013-01-01"/>
         <ItemData ItemOID="EX.EXENDTC" Value="2013-01-11"/>
         <ItemData ItemOID="EX.EXSTDY" Value="166"/>
         <ItemData ItemOID="EX.EXENDY" Value="176"/>
      </ItemGroupData>
      <ItemGroupData data:ItemGroupDataSeq="126" ItemGroupOID="EX">
         <ItemData ItemOID="EX.STUDYID" Value="CDISCPILOT01"/>
         <ItemData ItemOID="EX.DOMAIN" Value="EX"/>
         <ItemData ItemOID="EX.USUBJID" Value="01-703-1279"/>
         <ItemData ItemOID="EX.EXSEQ" Value="1"/>
         <ItemData ItemOID="EX.EXTRT" Value="XANOMELINE"/>
         <ItemData ItemOID="EX.EXDOSE" Value="54"/>
         <ItemData ItemOID="EX.EXDOSU" Value="mg"/>
         <ItemData ItemOID="EX.EXDOSFRM" Value="PATCH"/>
         <ItemData ItemOID="EX.EXDOSFRQ" Value="QD"/>
         <ItemData ItemOID="EX.EXROUTE" Value="TRANSDERMAL"/>
         <ItemData ItemOID="EX.VISITNUM" Value="3"/>
         <ItemData ItemOID="EX.VISIT" Value="BASELINE"/>
         <ItemData ItemOID="EX.VISITDY" Value="1"/>
         <ItemData ItemOID="EX.EXSTDTC" Value="2013-05-13"/>
         <ItemData ItemOID="EX.EXENDTC" Value="2013-06-03"/>
         <ItemData ItemOID="EX.EXSTDY" Value="1"/>
         <ItemData ItemOID="EX.EXENDY" Value="22"/>
      </ItemGroupData>
      <ItemGroupData data:ItemGroupDataSeq="127" ItemGroupOID="EX">
         <ItemData ItemOID="EX.STUDYID" Value="CDISCPILOT01"/>
         <ItemData ItemOID="EX.DOMAIN" Value="EX"/>
         <ItemData ItemOID="EX.USUBJID" Value="01-703-1295"/>
         <ItemData ItemOID="EX.EXSEQ" Value="1"/>
         <ItemData ItemOID="EX.EXTRT" Value="XANOMELINE"/>
         <ItemData ItemOID="EX.EXDOSE" Value="54"/>
         <ItemData ItemOID="EX.EXDOSU" Value="mg"/>
         <ItemData ItemOID="EX.EXDOSFRM" Value="PATCH"/>
         <ItemData ItemOID="EX.EXDOSFRQ" Value="QD"/>
         <ItemData ItemOID="EX.EXROUTE" Value="TRANSDERMAL"/>
         <ItemData ItemOID="EX.VISITNUM" Value="3"/>
         <ItemData ItemOID="EX.VISIT" Value="BASELINE"/>
         <ItemData ItemOID="EX.VISITDY" Value="1"/>
         <ItemData ItemOID="EX.EXSTDTC" Value="2013-11-21"/>
         <ItemData ItemOID="EX.EXENDTC" Value="2013-12-05"/>
         <ItemData ItemOID="EX.EXSTDY" Value="1"/>
         <ItemData ItemOID="EX.EXENDY" Value="15"/>
      </ItemGroupData>
      <ItemGroupData data:ItemGroupDataSeq="128" ItemGroupOID="EX">
         <ItemData ItemOID="EX.STUDYID" Value="CDISCPILOT01"/>
         <ItemData ItemOID="EX.DOMAIN" Value="EX"/>
         <ItemData ItemOID="EX.USUBJID" Value="01-703-1295"/>
         <ItemData ItemOID="EX.EXSEQ" Value="2"/>
         <ItemData ItemOID="EX.EXTRT" Value="XANOMELINE"/>
         <ItemData ItemOID="EX.EXDOSE" Value="81"/>
         <ItemData ItemOID="EX.EXDOSU" Value="mg"/>
         <ItemData ItemOID="EX.EXDOSFRM" Value="PATCH"/>
         <ItemData ItemOID="EX.EXDOSFRQ" Value="QD"/>
         <ItemData ItemOID="EX.EXROUTE" Value="TRANSDERMAL"/>
         <ItemData ItemOID="EX.VISITNUM" Value="4"/>
         <ItemData ItemOID="EX.VISIT" Value="WEEK 2"/>
         <ItemData ItemOID="EX.VISITDY" Value="14"/>
         <ItemData ItemOID="EX.EXSTDTC" Value="2013-12-06"/>
         <ItemData ItemOID="EX.EXENDTC" Value="2014-04-19"/>
         <ItemData ItemOID="EX.EXSTDY" Value="16"/>
         <ItemData ItemOID="EX.EXENDY" Value="150"/>
      </ItemGroupData>
      <ItemGroupData data:ItemGroupDataSeq="129" ItemGroupOID="EX">
         <ItemData ItemOID="EX.STUDYID" Value="CDISCPILOT01"/>
         <ItemData ItemOID="EX.DOMAIN" Value="EX"/>
         <ItemData ItemOID="EX.USUBJID" Value="01-703-1299"/>
         <ItemData ItemOID="EX.EXSEQ" Value="1"/>
         <ItemData ItemOID="EX.EXTRT" Value="PLACEBO"/>
         <ItemData ItemOID="EX.EXDOSE" Value="0"/>
         <ItemData ItemOID="EX.EXDOSU" Value="mg"/>
         <ItemData ItemOID="EX.EXDOSFRM" Value="PATCH"/>
         <ItemData ItemOID="EX.EXDOSFRQ" Value="QD"/>
         <ItemData ItemOID="EX.EXROUTE" Value="TRANSDERMAL"/>
         <ItemData ItemOID="EX.VISITNUM" Value="3"/>
         <ItemData ItemOID="EX.VISIT" Value="BASELINE"/>
         <ItemData ItemOID="EX.VISITDY" Value="1"/>
         <ItemData ItemOID="EX.EXSTDTC" Value="2012-09-12"/>
         <ItemData ItemOID="EX.EXENDTC" Value="2012-09-28"/>
         <ItemData ItemOID="EX.EXSTDY" Value="1"/>
         <ItemData ItemOID="EX.EXENDY" Value="17"/>
      </ItemGroupData>
      <ItemGroupData data:ItemGroupDataSeq="130" ItemGroupOID="EX">
         <ItemData ItemOID="EX.STUDYID" Value="CDISCPILOT01"/>
         <ItemData ItemOID="EX.DOMAIN" Value="EX"/>
         <ItemData ItemOID="EX.USUBJID" Value="01-703-1299"/>
         <ItemData ItemOID="EX.EXSEQ" Value="2"/>
         <ItemData ItemOID="EX.EXTRT" Value="PLACEBO"/>
         <ItemData ItemOID="EX.EXDOSE" Value="0"/>
         <ItemData ItemOID="EX.EXDOSU" Value="mg"/>
         <ItemData ItemOID="EX.EXDOSFRM" Value="PATCH"/>
         <ItemData ItemOID="EX.EXDOSFRQ" Value="QD"/>
         <ItemData ItemOID="EX.EXROUTE" Value="TRANSDERMAL"/>
         <ItemData ItemOID="EX.VISITNUM" Value="4"/>
         <ItemData ItemOID="EX.VISIT" Value="WEEK 2"/>
         <ItemData ItemOID="EX.VISITDY" Value="14"/>
         <ItemData ItemOID="EX.EXSTDTC" Value="2012-09-29"/>
         <ItemData ItemOID="EX.EXENDTC" Value="2013-03-01"/>
         <ItemData ItemOID="EX.EXSTDY" Value="18"/>
         <ItemData ItemOID="EX.EXENDY" Value="171"/>
      </ItemGroupData>
      <ItemGroupData data:ItemGroupDataSeq="131" ItemGroupOID="EX">
         <ItemData ItemOID="EX.STUDYID" Value="CDISCPILOT01"/>
         <ItemData ItemOID="EX.DOMAIN" Value="EX"/>
         <ItemData ItemOID="EX.USUBJID" Value="01-703-1299"/>
         <ItemData ItemOID="EX.EXSEQ" Value="3"/>
         <ItemData ItemOID="EX.EXTRT" Value="PLACEBO"/>
         <ItemData ItemOID="EX.EXDOSE" Value="0"/>
         <ItemData ItemOID="EX.EXDOSU" Value="mg"/>
         <ItemData ItemOID="EX.EXDOSFRM" Value="PATCH"/>
         <ItemData ItemOID="EX.EXDOSFRQ" Value="QD"/>
         <ItemData ItemOID="EX.EXROUTE" Value="TRANSDERMAL"/>
         <ItemData ItemOID="EX.VISITNUM" Value="12"/>
         <ItemData ItemOID="EX.VISIT" Value="WEEK 24"/>
         <ItemData ItemOID="EX.VISITDY" Value="168"/>
         <ItemData ItemOID="EX.EXSTDTC" Value="2013-03-02"/>
         <ItemData ItemOID="EX.EXENDTC" Value="2013-03-13"/>
         <ItemData ItemOID="EX.EXSTDY" Value="172"/>
         <ItemData ItemOID="EX.EXENDY" Value="183"/>
      </ItemGroupData>
      <ItemGroupData data:ItemGroupDataSeq="132" ItemGroupOID="EX">
         <ItemData ItemOID="EX.STUDYID" Value="CDISCPILOT01"/>
         <ItemData ItemOID="EX.DOMAIN" Value="EX"/>
         <ItemData ItemOID="EX.USUBJID" Value="01-703-1335"/>
         <ItemData ItemOID="EX.EXSEQ" Value="1"/>
         <ItemData ItemOID="EX.EXTRT" Value="XANOMELINE"/>
         <ItemData ItemOID="EX.EXDOSE" Value="54"/>
         <ItemData ItemOID="EX.EXDOSU" Value="mg"/>
         <ItemData ItemOID="EX.EXDOSFRM" Value="PATCH"/>
         <ItemData ItemOID="EX.EXDOSFRQ" Value="QD"/>
         <ItemData ItemOID="EX.EXROUTE" Value="TRANSDERMAL"/>
         <ItemData ItemOID="EX.VISITNUM" Value="3"/>
         <ItemData ItemOID="EX.VISIT" Value="BASELINE"/>
         <ItemData ItemOID="EX.VISITDY" Value="1"/>
         <ItemData ItemOID="EX.EXSTDTC" Value="2014-03-17"/>
         <ItemData ItemOID="EX.EXENDTC" Value="2014-03-31"/>
         <ItemData ItemOID="EX.EXSTDY" Value="1"/>
         <ItemData ItemOID="EX.EXENDY" Value="15"/>
      </ItemGroupData>
      <ItemGroupData data:ItemGroupDataSeq="133" ItemGroupOID="EX">
         <ItemData ItemOID="EX.STUDYID" Value="CDISCPILOT01"/>
         <ItemData ItemOID="EX.DOMAIN" Value="EX"/>
         <ItemData ItemOID="EX.USUBJID" Value="01-703-1335"/>
         <ItemData ItemOID="EX.EXSEQ" Value="2"/>
         <ItemData ItemOID="EX.EXTRT" Value="XANOMELINE"/>
         <ItemData ItemOID="EX.EXDOSE" Value="81"/>
         <ItemData ItemOID="EX.EXDOSU" Value="mg"/>
         <ItemData ItemOID="EX.EXDOSFRM" Value="PATCH"/>
         <ItemData ItemOID="EX.EXDOSFRQ" Value="QD"/>
         <ItemData ItemOID="EX.EXROUTE" Value="TRANSDERMAL"/>
         <ItemData ItemOID="EX.VISITNUM" Value="4"/>
         <ItemData ItemOID="EX.VISIT" Value="WEEK 2"/>
         <ItemData ItemOID="EX.VISITDY" Value="14"/>
         <ItemData ItemOID="EX.EXSTDTC" Value="2014-04-01"/>
         <ItemData ItemOID="EX.EXENDTC" Value="2014-05-07"/>
         <ItemData ItemOID="EX.EXSTDY" Value="16"/>
         <ItemData ItemOID="EX.EXENDY" Value="52"/>
      </ItemGroupData>
      <ItemGroupData data:ItemGroupDataSeq="134" ItemGroupOID="EX">
         <ItemData ItemOID="EX.STUDYID" Value="CDISCPILOT01"/>
         <ItemData ItemOID="EX.DOMAIN" Value="EX"/>
         <ItemData ItemOID="EX.USUBJID" Value="01-703-1379"/>
         <ItemData ItemOID="EX.EXSEQ" Value="1"/>
         <ItemData ItemOID="EX.EXTRT" Value="XANOMELINE"/>
         <ItemData ItemOID="EX.EXDOSE" Value="54"/>
         <ItemData ItemOID="EX.EXDOSU" Value="mg"/>
         <ItemData ItemOID="EX.EXDOSFRM" Value="PATCH"/>
         <ItemData ItemOID="EX.EXDOSFRQ" Value="QD"/>
         <ItemData ItemOID="EX.EXROUTE" Value="TRANSDERMAL"/>
         <ItemData ItemOID="EX.VISITNUM" Value="3"/>
         <ItemData ItemOID="EX.VISIT" Value="BASELINE"/>
         <ItemData ItemOID="EX.VISITDY" Value="1"/>
         <ItemData ItemOID="EX.EXSTDTC" Value="2013-09-22"/>
         <ItemData ItemOID="EX.EXENDTC" Value="2013-10-07"/>
         <ItemData ItemOID="EX.EXSTDY" Value="1"/>
         <ItemData ItemOID="EX.EXENDY" Value="16"/>
      </ItemGroupData>
      <ItemGroupData data:ItemGroupDataSeq="135" ItemGroupOID="EX">
         <ItemData ItemOID="EX.STUDYID" Value="CDISCPILOT01"/>
         <ItemData ItemOID="EX.DOMAIN" Value="EX"/>
         <ItemData ItemOID="EX.USUBJID" Value="01-703-1379"/>
         <ItemData ItemOID="EX.EXSEQ" Value="2"/>
         <ItemData ItemOID="EX.EXTRT" Value="XANOMELINE"/>
         <ItemData ItemOID="EX.EXDOSE" Value="54"/>
         <ItemData ItemOID="EX.EXDOSU" Value="mg"/>
         <ItemData ItemOID="EX.EXDOSFRM" Value="PATCH"/>
         <ItemData ItemOID="EX.EXDOSFRQ" Value="QD"/>
         <ItemData ItemOID="EX.EXROUTE" Value="TRANSDERMAL"/>
         <ItemData ItemOID="EX.VISITNUM" Value="4"/>
         <ItemData ItemOID="EX.VISIT" Value="WEEK 2"/>
         <ItemData ItemOID="EX.VISITDY" Value="14"/>
         <ItemData ItemOID="EX.EXSTDTC" Value="2013-10-08"/>
         <ItemData ItemOID="EX.EXENDTC" Value="2014-03-08"/>
         <ItemData ItemOID="EX.EXSTDY" Value="17"/>
         <ItemData ItemOID="EX.EXENDY" Value="168"/>
      </ItemGroupData>
      <ItemGroupData data:ItemGroupDataSeq="136" ItemGroupOID="EX">
         <ItemData ItemOID="EX.STUDYID" Value="CDISCPILOT01"/>
         <ItemData ItemOID="EX.DOMAIN" Value="EX"/>
         <ItemData ItemOID="EX.USUBJID" Value="01-703-1379"/>
         <ItemData ItemOID="EX.EXSEQ" Value="3"/>
         <ItemData ItemOID="EX.EXTRT" Value="XANOMELINE"/>
         <ItemData ItemOID="EX.EXDOSE" Value="54"/>
         <ItemData ItemOID="EX.EXDOSU" Value="mg"/>
         <ItemData ItemOID="EX.EXDOSFRM" Value="PATCH"/>
         <ItemData ItemOID="EX.EXDOSFRQ" Value="QD"/>
         <ItemData ItemOID="EX.EXROUTE" Value="TRANSDERMAL"/>
         <ItemData ItemOID="EX.VISITNUM" Value="12"/>
         <ItemData ItemOID="EX.VISIT" Value="WEEK 24"/>
         <ItemData ItemOID="EX.VISITDY" Value="168"/>
         <ItemData ItemOID="EX.EXSTDTC" Value="2014-03-09"/>
         <ItemData ItemOID="EX.EXENDTC" Value="2014-03-21"/>
         <ItemData ItemOID="EX.EXSTDY" Value="169"/>
         <ItemData ItemOID="EX.EXENDY" Value="181"/>
      </ItemGroupData>
      <ItemGroupData data:ItemGroupDataSeq="137" ItemGroupOID="EX">
         <ItemData ItemOID="EX.STUDYID" Value="CDISCPILOT01"/>
         <ItemData ItemOID="EX.DOMAIN" Value="EX"/>
         <ItemData ItemOID="EX.USUBJID" Value="01-703-1403"/>
         <ItemData ItemOID="EX.EXSEQ" Value="1"/>
         <ItemData ItemOID="EX.EXTRT" Value="XANOMELINE"/>
         <ItemData ItemOID="EX.EXDOSE" Value="54"/>
         <ItemData ItemOID="EX.EXDOSU" Value="mg"/>
         <ItemData ItemOID="EX.EXDOSFRM" Value="PATCH"/>
         <ItemData ItemOID="EX.EXDOSFRQ" Value="QD"/>
         <ItemData ItemOID="EX.EXROUTE" Value="TRANSDERMAL"/>
         <ItemData ItemOID="EX.VISITNUM" Value="3"/>
         <ItemData ItemOID="EX.VISIT" Value="BASELINE"/>
         <ItemData ItemOID="EX.VISITDY" Value="1"/>
         <ItemData ItemOID="EX.EXSTDTC" Value="2012-12-12"/>
         <ItemData ItemOID="EX.EXENDTC" Value="2012-12-13"/>
         <ItemData ItemOID="EX.EXSTDY" Value="1"/>
         <ItemData ItemOID="EX.EXENDY" Value="2"/>
      </ItemGroupData>
      <ItemGroupData data:ItemGroupDataSeq="138" ItemGroupOID="EX">
         <ItemData ItemOID="EX.STUDYID" Value="CDISCPILOT01"/>
         <ItemData ItemOID="EX.DOMAIN" Value="EX"/>
         <ItemData ItemOID="EX.USUBJID" Value="01-703-1439"/>
         <ItemData ItemOID="EX.EXSEQ" Value="1"/>
         <ItemData ItemOID="EX.EXTRT" Value="XANOMELINE"/>
         <ItemData ItemOID="EX.EXDOSE" Value="54"/>
         <ItemData ItemOID="EX.EXDOSU" Value="mg"/>
         <ItemData ItemOID="EX.EXDOSFRM" Value="PATCH"/>
         <ItemData ItemOID="EX.EXDOSFRQ" Value="QD"/>
         <ItemData ItemOID="EX.EXROUTE" Value="TRANSDERMAL"/>
         <ItemData ItemOID="EX.VISITNUM" Value="3"/>
         <ItemData ItemOID="EX.VISIT" Value="BASELINE"/>
         <ItemData ItemOID="EX.VISITDY" Value="1"/>
         <ItemData ItemOID="EX.EXSTDTC" Value="2014-03-12"/>
         <ItemData ItemOID="EX.EXENDTC" Value="2014-03-26"/>
         <ItemData ItemOID="EX.EXSTDY" Value="1"/>
         <ItemData ItemOID="EX.EXENDY" Value="15"/>
      </ItemGroupData>
      <ItemGroupData data:ItemGroupDataSeq="139" ItemGroupOID="EX">
         <ItemData ItemOID="EX.STUDYID" Value="CDISCPILOT01"/>
         <ItemData ItemOID="EX.DOMAIN" Value="EX"/>
         <ItemData ItemOID="EX.USUBJID" Value="01-703-1439"/>
         <ItemData ItemOID="EX.EXSEQ" Value="2"/>
         <ItemData ItemOID="EX.EXTRT" Value="XANOMELINE"/>
         <ItemData ItemOID="EX.EXDOSE" Value="81"/>
         <ItemData ItemOID="EX.EXDOSU" Value="mg"/>
         <ItemData ItemOID="EX.EXDOSFRM" Value="PATCH"/>
         <ItemData ItemOID="EX.EXDOSFRQ" Value="QD"/>
         <ItemData ItemOID="EX.EXROUTE" Value="TRANSDERMAL"/>
         <ItemData ItemOID="EX.VISITNUM" Value="4"/>
         <ItemData ItemOID="EX.VISIT" Value="WEEK 2"/>
         <ItemData ItemOID="EX.VISITDY" Value="14"/>
         <ItemData ItemOID="EX.EXSTDTC" Value="2014-03-27"/>
         <ItemData ItemOID="EX.EXENDTC" Value="2014-08-28"/>
         <ItemData ItemOID="EX.EXSTDY" Value="16"/>
         <ItemData ItemOID="EX.EXENDY" Value="170"/>
      </ItemGroupData>
      <ItemGroupData data:ItemGroupDataSeq="140" ItemGroupOID="EX">
         <ItemData ItemOID="EX.STUDYID" Value="CDISCPILOT01"/>
         <ItemData ItemOID="EX.DOMAIN" Value="EX"/>
         <ItemData ItemOID="EX.USUBJID" Value="01-703-1439"/>
         <ItemData ItemOID="EX.EXSEQ" Value="3"/>
         <ItemData ItemOID="EX.EXTRT" Value="XANOMELINE"/>
         <ItemData ItemOID="EX.EXDOSE" Value="54"/>
         <ItemData ItemOID="EX.EXDOSU" Value="mg"/>
         <ItemData ItemOID="EX.EXDOSFRM" Value="PATCH"/>
         <ItemData ItemOID="EX.EXDOSFRQ" Value="QD"/>
         <ItemData ItemOID="EX.EXROUTE" Value="TRANSDERMAL"/>
         <ItemData ItemOID="EX.VISITNUM" Value="12"/>
         <ItemData ItemOID="EX.VISIT" Value="WEEK 24"/>
         <ItemData ItemOID="EX.VISITDY" Value="168"/>
         <ItemData ItemOID="EX.EXSTDTC" Value="2014-08-29"/>
         <ItemData ItemOID="EX.EXENDTC" Value="2014-09-11"/>
         <ItemData ItemOID="EX.EXSTDY" Value="171"/>
         <ItemData ItemOID="EX.EXENDY" Value="184"/>
      </ItemGroupData>
      <ItemGroupData data:ItemGroupDataSeq="141" ItemGroupOID="EX">
         <ItemData ItemOID="EX.STUDYID" Value="CDISCPILOT01"/>
         <ItemData ItemOID="EX.DOMAIN" Value="EX"/>
         <ItemData ItemOID="EX.USUBJID" Value="01-704-1008"/>
         <ItemData ItemOID="EX.EXSEQ" Value="1"/>
         <ItemData ItemOID="EX.EXTRT" Value="XANOMELINE"/>
         <ItemData ItemOID="EX.EXDOSE" Value="54"/>
         <ItemData ItemOID="EX.EXDOSU" Value="mg"/>
         <ItemData ItemOID="EX.EXDOSFRM" Value="PATCH"/>
         <ItemData ItemOID="EX.EXDOSFRQ" Value="QD"/>
         <ItemData ItemOID="EX.EXROUTE" Value="TRANSDERMAL"/>
         <ItemData ItemOID="EX.VISITNUM" Value="3"/>
         <ItemData ItemOID="EX.VISIT" Value="BASELINE"/>
         <ItemData ItemOID="EX.VISITDY" Value="1"/>
         <ItemData ItemOID="EX.EXSTDTC" Value="2013-01-13"/>
         <ItemData ItemOID="EX.EXENDTC" Value="2013-01-28"/>
         <ItemData ItemOID="EX.EXSTDY" Value="1"/>
         <ItemData ItemOID="EX.EXENDY" Value="16"/>
      </ItemGroupData>
      <ItemGroupData data:ItemGroupDataSeq="142" ItemGroupOID="EX">
         <ItemData ItemOID="EX.STUDYID" Value="CDISCPILOT01"/>
         <ItemData ItemOID="EX.DOMAIN" Value="EX"/>
         <ItemData ItemOID="EX.USUBJID" Value="01-704-1008"/>
         <ItemData ItemOID="EX.EXSEQ" Value="2"/>
         <ItemData ItemOID="EX.EXTRT" Value="XANOMELINE"/>
         <ItemData ItemOID="EX.EXDOSE" Value="81"/>
         <ItemData ItemOID="EX.EXDOSU" Value="mg"/>
         <ItemData ItemOID="EX.EXDOSFRM" Value="PATCH"/>
         <ItemData ItemOID="EX.EXDOSFRQ" Value="QD"/>
         <ItemData ItemOID="EX.EXROUTE" Value="TRANSDERMAL"/>
         <ItemData ItemOID="EX.VISITNUM" Value="4"/>
         <ItemData ItemOID="EX.VISIT" Value="WEEK 2"/>
         <ItemData ItemOID="EX.VISITDY" Value="14"/>
         <ItemData ItemOID="EX.EXSTDTC" Value="2013-01-29"/>
         <ItemData ItemOID="EX.EXENDTC" Value="2013-02-21"/>
         <ItemData ItemOID="EX.EXSTDY" Value="17"/>
         <ItemData ItemOID="EX.EXENDY" Value="40"/>
      </ItemGroupData>
      <ItemGroupData data:ItemGroupDataSeq="143" ItemGroupOID="EX">
         <ItemData ItemOID="EX.STUDYID" Value="CDISCPILOT01"/>
         <ItemData ItemOID="EX.DOMAIN" Value="EX"/>
         <ItemData ItemOID="EX.USUBJID" Value="01-704-1009"/>
         <ItemData ItemOID="EX.EXSEQ" Value="1"/>
         <ItemData ItemOID="EX.EXTRT" Value="XANOMELINE"/>
         <ItemData ItemOID="EX.EXDOSE" Value="54"/>
         <ItemData ItemOID="EX.EXDOSU" Value="mg"/>
         <ItemData ItemOID="EX.EXDOSFRM" Value="PATCH"/>
         <ItemData ItemOID="EX.EXDOSFRQ" Value="QD"/>
         <ItemData ItemOID="EX.EXROUTE" Value="TRANSDERMAL"/>
         <ItemData ItemOID="EX.VISITNUM" Value="3"/>
         <ItemData ItemOID="EX.VISIT" Value="BASELINE"/>
         <ItemData ItemOID="EX.VISITDY" Value="1"/>
         <ItemData ItemOID="EX.EXSTDTC" Value="2013-08-27"/>
         <ItemData ItemOID="EX.EXENDTC" Value="2013-09-14"/>
         <ItemData ItemOID="EX.EXSTDY" Value="1"/>
         <ItemData ItemOID="EX.EXENDY" Value="19"/>
      </ItemGroupData>
      <ItemGroupData data:ItemGroupDataSeq="144" ItemGroupOID="EX">
         <ItemData ItemOID="EX.STUDYID" Value="CDISCPILOT01"/>
         <ItemData ItemOID="EX.DOMAIN" Value="EX"/>
         <ItemData ItemOID="EX.USUBJID" Value="01-704-1009"/>
         <ItemData ItemOID="EX.EXSEQ" Value="2"/>
         <ItemData ItemOID="EX.EXTRT" Value="XANOMELINE"/>
         <ItemData ItemOID="EX.EXDOSE" Value="54"/>
         <ItemData ItemOID="EX.EXDOSU" Value="mg"/>
         <ItemData ItemOID="EX.EXDOSFRM" Value="PATCH"/>
         <ItemData ItemOID="EX.EXDOSFRQ" Value="QD"/>
         <ItemData ItemOID="EX.EXROUTE" Value="TRANSDERMAL"/>
         <ItemData ItemOID="EX.VISITNUM" Value="4"/>
         <ItemData ItemOID="EX.VISIT" Value="WEEK 2"/>
         <ItemData ItemOID="EX.VISITDY" Value="14"/>
         <ItemData ItemOID="EX.EXSTDTC" Value="2013-09-15"/>
         <ItemData ItemOID="EX.EXENDTC" Value="2013-09-25"/>
         <ItemData ItemOID="EX.EXSTDY" Value="20"/>
         <ItemData ItemOID="EX.EXENDY" Value="30"/>
      </ItemGroupData>
      <ItemGroupData data:ItemGroupDataSeq="145" ItemGroupOID="EX">
         <ItemData ItemOID="EX.STUDYID" Value="CDISCPILOT01"/>
         <ItemData ItemOID="EX.DOMAIN" Value="EX"/>
         <ItemData ItemOID="EX.USUBJID" Value="01-704-1010"/>
         <ItemData ItemOID="EX.EXSEQ" Value="1"/>
         <ItemData ItemOID="EX.EXTRT" Value="PLACEBO"/>
         <ItemData ItemOID="EX.EXDOSE" Value="0"/>
         <ItemData ItemOID="EX.EXDOSU" Value="mg"/>
         <ItemData ItemOID="EX.EXDOSFRM" Value="PATCH"/>
         <ItemData ItemOID="EX.EXDOSFRQ" Value="QD"/>
         <ItemData ItemOID="EX.EXROUTE" Value="TRANSDERMAL"/>
         <ItemData ItemOID="EX.VISITNUM" Value="3"/>
         <ItemData ItemOID="EX.VISIT" Value="BASELINE"/>
         <ItemData ItemOID="EX.VISITDY" Value="1"/>
         <ItemData ItemOID="EX.EXSTDTC" Value="2014-02-21"/>
         <ItemData ItemOID="EX.EXENDTC" Value="2014-03-08"/>
         <ItemData ItemOID="EX.EXSTDY" Value="1"/>
         <ItemData ItemOID="EX.EXENDY" Value="16"/>
      </ItemGroupData>
      <ItemGroupData data:ItemGroupDataSeq="146" ItemGroupOID="EX">
         <ItemData ItemOID="EX.STUDYID" Value="CDISCPILOT01"/>
         <ItemData ItemOID="EX.DOMAIN" Value="EX"/>
         <ItemData ItemOID="EX.USUBJID" Value="01-704-1010"/>
         <ItemData ItemOID="EX.EXSEQ" Value="2"/>
         <ItemData ItemOID="EX.EXTRT" Value="PLACEBO"/>
         <ItemData ItemOID="EX.EXDOSE" Value="0"/>
         <ItemData ItemOID="EX.EXDOSU" Value="mg"/>
         <ItemData ItemOID="EX.EXDOSFRM" Value="PATCH"/>
         <ItemData ItemOID="EX.EXDOSFRQ" Value="QD"/>
         <ItemData ItemOID="EX.EXROUTE" Value="TRANSDERMAL"/>
         <ItemData ItemOID="EX.VISITNUM" Value="4"/>
         <ItemData ItemOID="EX.VISIT" Value="WEEK 2"/>
         <ItemData ItemOID="EX.VISITDY" Value="14"/>
         <ItemData ItemOID="EX.EXSTDTC" Value="2014-03-09"/>
         <ItemData ItemOID="EX.EXENDTC" Value="2014-07-08"/>
         <ItemData ItemOID="EX.EXSTDY" Value="17"/>
         <ItemData ItemOID="EX.EXENDY" Value="138"/>
      </ItemGroupData>
      <ItemGroupData data:ItemGroupDataSeq="147" ItemGroupOID="EX">
         <ItemData ItemOID="EX.STUDYID" Value="CDISCPILOT01"/>
         <ItemData ItemOID="EX.DOMAIN" Value="EX"/>
         <ItemData ItemOID="EX.USUBJID" Value="01-704-1017"/>
         <ItemData ItemOID="EX.EXSEQ" Value="1"/>
         <ItemData ItemOID="EX.EXTRT" Value="XANOMELINE"/>
         <ItemData ItemOID="EX.EXDOSE" Value="54"/>
         <ItemData ItemOID="EX.EXDOSU" Value="mg"/>
         <ItemData ItemOID="EX.EXDOSFRM" Value="PATCH"/>
         <ItemData ItemOID="EX.EXDOSFRQ" Value="QD"/>
         <ItemData ItemOID="EX.EXROUTE" Value="TRANSDERMAL"/>
         <ItemData ItemOID="EX.VISITNUM" Value="3"/>
         <ItemData ItemOID="EX.VISIT" Value="BASELINE"/>
         <ItemData ItemOID="EX.VISITDY" Value="1"/>
         <ItemData ItemOID="EX.EXSTDTC" Value="2013-10-06"/>
         <ItemData ItemOID="EX.EXENDTC" Value="2013-10-19"/>
         <ItemData ItemOID="EX.EXSTDY" Value="1"/>
         <ItemData ItemOID="EX.EXENDY" Value="14"/>
      </ItemGroupData>
      <ItemGroupData data:ItemGroupDataSeq="148" ItemGroupOID="EX">
         <ItemData ItemOID="EX.STUDYID" Value="CDISCPILOT01"/>
         <ItemData ItemOID="EX.DOMAIN" Value="EX"/>
         <ItemData ItemOID="EX.USUBJID" Value="01-704-1017"/>
         <ItemData ItemOID="EX.EXSEQ" Value="2"/>
         <ItemData ItemOID="EX.EXTRT" Value="XANOMELINE"/>
         <ItemData ItemOID="EX.EXDOSE" Value="81"/>
         <ItemData ItemOID="EX.EXDOSU" Value="mg"/>
         <ItemData ItemOID="EX.EXDOSFRM" Value="PATCH"/>
         <ItemData ItemOID="EX.EXDOSFRQ" Value="QD"/>
         <ItemData ItemOID="EX.EXROUTE" Value="TRANSDERMAL"/>
         <ItemData ItemOID="EX.VISITNUM" Value="4"/>
         <ItemData ItemOID="EX.VISIT" Value="WEEK 2"/>
         <ItemData ItemOID="EX.VISITDY" Value="14"/>
         <ItemData ItemOID="EX.EXSTDTC" Value="2013-10-20"/>
         <ItemData ItemOID="EX.EXENDTC" Value="2013-11-18"/>
         <ItemData ItemOID="EX.EXSTDY" Value="15"/>
         <ItemData ItemOID="EX.EXENDY" Value="44"/>
      </ItemGroupData>
      <ItemGroupData data:ItemGroupDataSeq="149" ItemGroupOID="EX">
         <ItemData ItemOID="EX.STUDYID" Value="CDISCPILOT01"/>
         <ItemData ItemOID="EX.DOMAIN" Value="EX"/>
         <ItemData ItemOID="EX.USUBJID" Value="01-704-1025"/>
         <ItemData ItemOID="EX.EXSEQ" Value="1"/>
         <ItemData ItemOID="EX.EXTRT" Value="XANOMELINE"/>
         <ItemData ItemOID="EX.EXDOSE" Value="54"/>
         <ItemData ItemOID="EX.EXDOSU" Value="mg"/>
         <ItemData ItemOID="EX.EXDOSFRM" Value="PATCH"/>
         <ItemData ItemOID="EX.EXDOSFRQ" Value="QD"/>
         <ItemData ItemOID="EX.EXROUTE" Value="TRANSDERMAL"/>
         <ItemData ItemOID="EX.VISITNUM" Value="3"/>
         <ItemData ItemOID="EX.VISIT" Value="BASELINE"/>
         <ItemData ItemOID="EX.VISITDY" Value="1"/>
         <ItemData ItemOID="EX.EXSTDTC" Value="2013-09-27"/>
         <ItemData ItemOID="EX.EXENDTC" Value="2013-10-11"/>
         <ItemData ItemOID="EX.EXSTDY" Value="1"/>
         <ItemData ItemOID="EX.EXENDY" Value="15"/>
      </ItemGroupData>
      <ItemGroupData data:ItemGroupDataSeq="150" ItemGroupOID="EX">
         <ItemData ItemOID="EX.STUDYID" Value="CDISCPILOT01"/>
         <ItemData ItemOID="EX.DOMAIN" Value="EX"/>
         <ItemData ItemOID="EX.USUBJID" Value="01-704-1025"/>
         <ItemData ItemOID="EX.EXSEQ" Value="2"/>
         <ItemData ItemOID="EX.EXTRT" Value="XANOMELINE"/>
         <ItemData ItemOID="EX.EXDOSE" Value="54"/>
         <ItemData ItemOID="EX.EXDOSU" Value="mg"/>
         <ItemData ItemOID="EX.EXDOSFRM" Value="PATCH"/>
         <ItemData ItemOID="EX.EXDOSFRQ" Value="QD"/>
         <ItemData ItemOID="EX.EXROUTE" Value="TRANSDERMAL"/>
         <ItemData ItemOID="EX.VISITNUM" Value="4"/>
         <ItemData ItemOID="EX.VISIT" Value="WEEK 2"/>
         <ItemData ItemOID="EX.VISITDY" Value="14"/>
         <ItemData ItemOID="EX.EXSTDTC" Value="2013-10-12"/>
         <ItemData ItemOID="EX.EXENDTC" Value="2013-10-24"/>
         <ItemData ItemOID="EX.EXSTDY" Value="16"/>
         <ItemData ItemOID="EX.EXENDY" Value="28"/>
      </ItemGroupData>
      <ItemGroupData data:ItemGroupDataSeq="151" ItemGroupOID="EX">
         <ItemData ItemOID="EX.STUDYID" Value="CDISCPILOT01"/>
         <ItemData ItemOID="EX.DOMAIN" Value="EX"/>
         <ItemData ItemOID="EX.USUBJID" Value="01-704-1065"/>
         <ItemData ItemOID="EX.EXSEQ" Value="1"/>
         <ItemData ItemOID="EX.EXTRT" Value="XANOMELINE"/>
         <ItemData ItemOID="EX.EXDOSE" Value="54"/>
         <ItemData ItemOID="EX.EXDOSU" Value="mg"/>
         <ItemData ItemOID="EX.EXDOSFRM" Value="PATCH"/>
         <ItemData ItemOID="EX.EXDOSFRQ" Value="QD"/>
         <ItemData ItemOID="EX.EXROUTE" Value="TRANSDERMAL"/>
         <ItemData ItemOID="EX.VISITNUM" Value="3"/>
         <ItemData ItemOID="EX.VISIT" Value="BASELINE"/>
         <ItemData ItemOID="EX.VISITDY" Value="1"/>
         <ItemData ItemOID="EX.EXSTDTC" Value="2013-10-24"/>
         <ItemData ItemOID="EX.EXENDTC" Value="2013-11-07"/>
         <ItemData ItemOID="EX.EXSTDY" Value="1"/>
         <ItemData ItemOID="EX.EXENDY" Value="15"/>
      </ItemGroupData>
      <ItemGroupData data:ItemGroupDataSeq="152" ItemGroupOID="EX">
         <ItemData ItemOID="EX.STUDYID" Value="CDISCPILOT01"/>
         <ItemData ItemOID="EX.DOMAIN" Value="EX"/>
         <ItemData ItemOID="EX.USUBJID" Value="01-704-1065"/>
         <ItemData ItemOID="EX.EXSEQ" Value="2"/>
         <ItemData ItemOID="EX.EXTRT" Value="XANOMELINE"/>
         <ItemData ItemOID="EX.EXDOSE" Value="81"/>
         <ItemData ItemOID="EX.EXDOSU" Value="mg"/>
         <ItemData ItemOID="EX.EXDOSFRM" Value="PATCH"/>
         <ItemData ItemOID="EX.EXDOSFRQ" Value="QD"/>
         <ItemData ItemOID="EX.EXROUTE" Value="TRANSDERMAL"/>
         <ItemData ItemOID="EX.VISITNUM" Value="4"/>
         <ItemData ItemOID="EX.VISIT" Value="WEEK 2"/>
         <ItemData ItemOID="EX.VISITDY" Value="14"/>
         <ItemData ItemOID="EX.EXSTDTC" Value="2013-11-08"/>
         <ItemData ItemOID="EX.EXENDTC" Value="2013-12-22"/>
         <ItemData ItemOID="EX.EXSTDY" Value="16"/>
         <ItemData ItemOID="EX.EXENDY" Value="60"/>
      </ItemGroupData>
      <ItemGroupData data:ItemGroupDataSeq="153" ItemGroupOID="EX">
         <ItemData ItemOID="EX.STUDYID" Value="CDISCPILOT01"/>
         <ItemData ItemOID="EX.DOMAIN" Value="EX"/>
         <ItemData ItemOID="EX.USUBJID" Value="01-704-1074"/>
         <ItemData ItemOID="EX.EXSEQ" Value="1"/>
         <ItemData ItemOID="EX.EXTRT" Value="XANOMELINE"/>
         <ItemData ItemOID="EX.EXDOSE" Value="54"/>
         <ItemData ItemOID="EX.EXDOSU" Value="mg"/>
         <ItemData ItemOID="EX.EXDOSFRM" Value="PATCH"/>
         <ItemData ItemOID="EX.EXDOSFRQ" Value="QD"/>
         <ItemData ItemOID="EX.EXROUTE" Value="TRANSDERMAL"/>
         <ItemData ItemOID="EX.VISITNUM" Value="3"/>
         <ItemData ItemOID="EX.VISIT" Value="BASELINE"/>
         <ItemData ItemOID="EX.VISITDY" Value="1"/>
         <ItemData ItemOID="EX.EXSTDTC" Value="2014-01-22"/>
         <ItemData ItemOID="EX.EXENDTC" Value="2014-02-09"/>
         <ItemData ItemOID="EX.EXSTDY" Value="1"/>
         <ItemData ItemOID="EX.EXENDY" Value="19"/>
      </ItemGroupData>
      <ItemGroupData data:ItemGroupDataSeq="154" ItemGroupOID="EX">
         <ItemData ItemOID="EX.STUDYID" Value="CDISCPILOT01"/>
         <ItemData ItemOID="EX.DOMAIN" Value="EX"/>
         <ItemData ItemOID="EX.USUBJID" Value="01-704-1074"/>
         <ItemData ItemOID="EX.EXSEQ" Value="2"/>
         <ItemData ItemOID="EX.EXTRT" Value="XANOMELINE"/>
         <ItemData ItemOID="EX.EXDOSE" Value="81"/>
         <ItemData ItemOID="EX.EXDOSU" Value="mg"/>
         <ItemData ItemOID="EX.EXDOSFRM" Value="PATCH"/>
         <ItemData ItemOID="EX.EXDOSFRQ" Value="QD"/>
         <ItemData ItemOID="EX.EXROUTE" Value="TRANSDERMAL"/>
         <ItemData ItemOID="EX.VISITNUM" Value="4"/>
         <ItemData ItemOID="EX.VISIT" Value="WEEK 2"/>
         <ItemData ItemOID="EX.VISITDY" Value="14"/>
         <ItemData ItemOID="EX.EXSTDTC" Value="2014-02-10"/>
         <ItemData ItemOID="EX.EXENDTC" Value="2014-03-20"/>
         <ItemData ItemOID="EX.EXSTDY" Value="20"/>
         <ItemData ItemOID="EX.EXENDY" Value="58"/>
      </ItemGroupData>
      <ItemGroupData data:ItemGroupDataSeq="155" ItemGroupOID="EX">
         <ItemData ItemOID="EX.STUDYID" Value="CDISCPILOT01"/>
         <ItemData ItemOID="EX.DOMAIN" Value="EX"/>
         <ItemData ItemOID="EX.USUBJID" Value="01-704-1093"/>
         <ItemData ItemOID="EX.EXSEQ" Value="1"/>
         <ItemData ItemOID="EX.EXTRT" Value="XANOMELINE"/>
         <ItemData ItemOID="EX.EXDOSE" Value="54"/>
         <ItemData ItemOID="EX.EXDOSU" Value="mg"/>
         <ItemData ItemOID="EX.EXDOSFRM" Value="PATCH"/>
         <ItemData ItemOID="EX.EXDOSFRQ" Value="QD"/>
         <ItemData ItemOID="EX.EXROUTE" Value="TRANSDERMAL"/>
         <ItemData ItemOID="EX.VISITNUM" Value="3"/>
         <ItemData ItemOID="EX.VISIT" Value="BASELINE"/>
         <ItemData ItemOID="EX.VISITDY" Value="1"/>
         <ItemData ItemOID="EX.EXSTDTC" Value="2013-03-15"/>
         <ItemData ItemOID="EX.EXENDTC" Value="2013-03-30"/>
         <ItemData ItemOID="EX.EXSTDY" Value="1"/>
         <ItemData ItemOID="EX.EXENDY" Value="16"/>
      </ItemGroupData>
      <ItemGroupData data:ItemGroupDataSeq="156" ItemGroupOID="EX">
         <ItemData ItemOID="EX.STUDYID" Value="CDISCPILOT01"/>
         <ItemData ItemOID="EX.DOMAIN" Value="EX"/>
         <ItemData ItemOID="EX.USUBJID" Value="01-704-1093"/>
         <ItemData ItemOID="EX.EXSEQ" Value="2"/>
         <ItemData ItemOID="EX.EXTRT" Value="XANOMELINE"/>
         <ItemData ItemOID="EX.EXDOSE" Value="81"/>
         <ItemData ItemOID="EX.EXDOSU" Value="mg"/>
         <ItemData ItemOID="EX.EXDOSFRM" Value="PATCH"/>
         <ItemData ItemOID="EX.EXDOSFRQ" Value="QD"/>
         <ItemData ItemOID="EX.EXROUTE" Value="TRANSDERMAL"/>
         <ItemData ItemOID="EX.VISITNUM" Value="4"/>
         <ItemData ItemOID="EX.VISIT" Value="WEEK 2"/>
         <ItemData ItemOID="EX.VISITDY" Value="14"/>
         <ItemData ItemOID="EX.EXSTDTC" Value="2013-03-31"/>
         <ItemData ItemOID="EX.EXENDTC" Value="2013-06-17"/>
         <ItemData ItemOID="EX.EXSTDY" Value="17"/>
         <ItemData ItemOID="EX.EXENDY" Value="95"/>
      </ItemGroupData>
      <ItemGroupData data:ItemGroupDataSeq="157" ItemGroupOID="EX">
         <ItemData ItemOID="EX.STUDYID" Value="CDISCPILOT01"/>
         <ItemData ItemOID="EX.DOMAIN" Value="EX"/>
         <ItemData ItemOID="EX.USUBJID" Value="01-704-1114"/>
         <ItemData ItemOID="EX.EXSEQ" Value="1"/>
         <ItemData ItemOID="EX.EXTRT" Value="XANOMELINE"/>
         <ItemData ItemOID="EX.EXDOSE" Value="54"/>
         <ItemData ItemOID="EX.EXDOSU" Value="mg"/>
         <ItemData ItemOID="EX.EXDOSFRM" Value="PATCH"/>
         <ItemData ItemOID="EX.EXDOSFRQ" Value="QD"/>
         <ItemData ItemOID="EX.EXROUTE" Value="TRANSDERMAL"/>
         <ItemData ItemOID="EX.VISITNUM" Value="3"/>
         <ItemData ItemOID="EX.VISIT" Value="BASELINE"/>
         <ItemData ItemOID="EX.VISITDY" Value="1"/>
         <ItemData ItemOID="EX.EXSTDTC" Value="2013-01-23"/>
         <ItemData ItemOID="EX.EXENDTC" Value="2013-02-03"/>
         <ItemData ItemOID="EX.EXSTDY" Value="1"/>
         <ItemData ItemOID="EX.EXENDY" Value="12"/>
      </ItemGroupData>
      <ItemGroupData data:ItemGroupDataSeq="158" ItemGroupOID="EX">
         <ItemData ItemOID="EX.STUDYID" Value="CDISCPILOT01"/>
         <ItemData ItemOID="EX.DOMAIN" Value="EX"/>
         <ItemData ItemOID="EX.USUBJID" Value="01-704-1114"/>
         <ItemData ItemOID="EX.EXSEQ" Value="2"/>
         <ItemData ItemOID="EX.EXTRT" Value="XANOMELINE"/>
         <ItemData ItemOID="EX.EXDOSE" Value="54"/>
         <ItemData ItemOID="EX.EXDOSU" Value="mg"/>
         <ItemData ItemOID="EX.EXDOSFRM" Value="PATCH"/>
         <ItemData ItemOID="EX.EXDOSFRQ" Value="QD"/>
         <ItemData ItemOID="EX.EXROUTE" Value="TRANSDERMAL"/>
         <ItemData ItemOID="EX.VISITNUM" Value="4"/>
         <ItemData ItemOID="EX.VISIT" Value="WEEK 2"/>
         <ItemData ItemOID="EX.VISITDY" Value="14"/>
         <ItemData ItemOID="EX.EXSTDTC" Value="2013-02-04"/>
         <ItemData ItemOID="EX.EXENDTC" Value="2013-07-07"/>
         <ItemData ItemOID="EX.EXSTDY" Value="13"/>
         <ItemData ItemOID="EX.EXENDY" Value="166"/>
      </ItemGroupData>
      <ItemGroupData data:ItemGroupDataSeq="159" ItemGroupOID="EX">
         <ItemData ItemOID="EX.STUDYID" Value="CDISCPILOT01"/>
         <ItemData ItemOID="EX.DOMAIN" Value="EX"/>
         <ItemData ItemOID="EX.USUBJID" Value="01-704-1120"/>
         <ItemData ItemOID="EX.EXSEQ" Value="1"/>
         <ItemData ItemOID="EX.EXTRT" Value="XANOMELINE"/>
         <ItemData ItemOID="EX.EXDOSE" Value="54"/>
         <ItemData ItemOID="EX.EXDOSU" Value="mg"/>
         <ItemData ItemOID="EX.EXDOSFRM" Value="PATCH"/>
         <ItemData ItemOID="EX.EXDOSFRQ" Value="QD"/>
         <ItemData ItemOID="EX.EXROUTE" Value="TRANSDERMAL"/>
         <ItemData ItemOID="EX.VISITNUM" Value="3"/>
         <ItemData ItemOID="EX.VISIT" Value="BASELINE"/>
         <ItemData ItemOID="EX.VISITDY" Value="1"/>
         <ItemData ItemOID="EX.EXSTDTC" Value="2013-12-02"/>
         <ItemData ItemOID="EX.EXENDTC" Value="2013-12-15"/>
         <ItemData ItemOID="EX.EXSTDY" Value="1"/>
         <ItemData ItemOID="EX.EXENDY" Value="14"/>
      </ItemGroupData>
      <ItemGroupData data:ItemGroupDataSeq="160" ItemGroupOID="EX">
         <ItemData ItemOID="EX.STUDYID" Value="CDISCPILOT01"/>
         <ItemData ItemOID="EX.DOMAIN" Value="EX"/>
         <ItemData ItemOID="EX.USUBJID" Value="01-704-1120"/>
         <ItemData ItemOID="EX.EXSEQ" Value="2"/>
         <ItemData ItemOID="EX.EXTRT" Value="XANOMELINE"/>
         <ItemData ItemOID="EX.EXDOSE" Value="54"/>
         <ItemData ItemOID="EX.EXDOSU" Value="mg"/>
         <ItemData ItemOID="EX.EXDOSFRM" Value="PATCH"/>
         <ItemData ItemOID="EX.EXDOSFRQ" Value="QD"/>
         <ItemData ItemOID="EX.EXROUTE" Value="TRANSDERMAL"/>
         <ItemData ItemOID="EX.VISITNUM" Value="4"/>
         <ItemData ItemOID="EX.VISIT" Value="WEEK 2"/>
         <ItemData ItemOID="EX.VISITDY" Value="14"/>
         <ItemData ItemOID="EX.EXSTDTC" Value="2013-12-16"/>
         <ItemData ItemOID="EX.EXENDTC" Value="2014-02-01"/>
         <ItemData ItemOID="EX.EXSTDY" Value="15"/>
         <ItemData ItemOID="EX.EXENDY" Value="62"/>
      </ItemGroupData>
      <ItemGroupData data:ItemGroupDataSeq="161" ItemGroupOID="EX">
         <ItemData ItemOID="EX.STUDYID" Value="CDISCPILOT01"/>
         <ItemData ItemOID="EX.DOMAIN" Value="EX"/>
         <ItemData ItemOID="EX.USUBJID" Value="01-704-1127"/>
         <ItemData ItemOID="EX.EXSEQ" Value="1"/>
         <ItemData ItemOID="EX.EXTRT" Value="PLACEBO"/>
         <ItemData ItemOID="EX.EXDOSE" Value="0"/>
         <ItemData ItemOID="EX.EXDOSU" Value="mg"/>
         <ItemData ItemOID="EX.EXDOSFRM" Value="PATCH"/>
         <ItemData ItemOID="EX.EXDOSFRQ" Value="QD"/>
         <ItemData ItemOID="EX.EXROUTE" Value="TRANSDERMAL"/>
         <ItemData ItemOID="EX.VISITNUM" Value="3"/>
         <ItemData ItemOID="EX.VISIT" Value="BASELINE"/>
         <ItemData ItemOID="EX.VISITDY" Value="1"/>
         <ItemData ItemOID="EX.EXSTDTC" Value="2013-10-02"/>
         <ItemData ItemOID="EX.EXENDTC" Value="2013-10-16"/>
         <ItemData ItemOID="EX.EXSTDY" Value="1"/>
         <ItemData ItemOID="EX.EXENDY" Value="15"/>
      </ItemGroupData>
      <ItemGroupData data:ItemGroupDataSeq="162" ItemGroupOID="EX">
         <ItemData ItemOID="EX.STUDYID" Value="CDISCPILOT01"/>
         <ItemData ItemOID="EX.DOMAIN" Value="EX"/>
         <ItemData ItemOID="EX.USUBJID" Value="01-704-1127"/>
         <ItemData ItemOID="EX.EXSEQ" Value="2"/>
         <ItemData ItemOID="EX.EXTRT" Value="PLACEBO"/>
         <ItemData ItemOID="EX.EXDOSE" Value="0"/>
         <ItemData ItemOID="EX.EXDOSU" Value="mg"/>
         <ItemData ItemOID="EX.EXDOSFRM" Value="PATCH"/>
         <ItemData ItemOID="EX.EXDOSFRQ" Value="QD"/>
         <ItemData ItemOID="EX.EXROUTE" Value="TRANSDERMAL"/>
         <ItemData ItemOID="EX.VISITNUM" Value="4"/>
         <ItemData ItemOID="EX.VISIT" Value="WEEK 2"/>
         <ItemData ItemOID="EX.VISITDY" Value="14"/>
         <ItemData ItemOID="EX.EXSTDTC" Value="2013-10-17"/>
         <ItemData ItemOID="EX.EXENDTC" Value="2014-03-17"/>
         <ItemData ItemOID="EX.EXSTDY" Value="16"/>
         <ItemData ItemOID="EX.EXENDY" Value="167"/>
      </ItemGroupData>
      <ItemGroupData data:ItemGroupDataSeq="163" ItemGroupOID="EX">
         <ItemData ItemOID="EX.STUDYID" Value="CDISCPILOT01"/>
         <ItemData ItemOID="EX.DOMAIN" Value="EX"/>
         <ItemData ItemOID="EX.USUBJID" Value="01-704-1127"/>
         <ItemData ItemOID="EX.EXSEQ" Value="3"/>
         <ItemData ItemOID="EX.EXTRT" Value="PLACEBO"/>
         <ItemData ItemOID="EX.EXDOSE" Value="0"/>
         <ItemData ItemOID="EX.EXDOSU" Value="mg"/>
         <ItemData ItemOID="EX.EXDOSFRM" Value="PATCH"/>
         <ItemData ItemOID="EX.EXDOSFRQ" Value="QD"/>
         <ItemData ItemOID="EX.EXROUTE" Value="TRANSDERMAL"/>
         <ItemData ItemOID="EX.VISITNUM" Value="12"/>
         <ItemData ItemOID="EX.VISIT" Value="WEEK 24"/>
         <ItemData ItemOID="EX.VISITDY" Value="168"/>
         <ItemData ItemOID="EX.EXSTDTC" Value="2014-03-18"/>
         <ItemData ItemOID="EX.EXENDTC" Value="2014-03-31"/>
         <ItemData ItemOID="EX.EXSTDY" Value="168"/>
         <ItemData ItemOID="EX.EXENDY" Value="181"/>
      </ItemGroupData>
      <ItemGroupData data:ItemGroupDataSeq="164" ItemGroupOID="EX">
         <ItemData ItemOID="EX.STUDYID" Value="CDISCPILOT01"/>
         <ItemData ItemOID="EX.DOMAIN" Value="EX"/>
         <ItemData ItemOID="EX.USUBJID" Value="01-704-1135"/>
         <ItemData ItemOID="EX.EXSEQ" Value="1"/>
         <ItemData ItemOID="EX.EXTRT" Value="XANOMELINE"/>
         <ItemData ItemOID="EX.EXDOSE" Value="54"/>
         <ItemData ItemOID="EX.EXDOSU" Value="mg"/>
         <ItemData ItemOID="EX.EXDOSFRM" Value="PATCH"/>
         <ItemData ItemOID="EX.EXDOSFRQ" Value="QD"/>
         <ItemData ItemOID="EX.EXROUTE" Value="TRANSDERMAL"/>
         <ItemData ItemOID="EX.VISITNUM" Value="3"/>
         <ItemData ItemOID="EX.VISIT" Value="BASELINE"/>
         <ItemData ItemOID="EX.VISITDY" Value="1"/>
         <ItemData ItemOID="EX.EXSTDTC" Value="2013-10-31"/>
         <ItemData ItemOID="EX.EXENDTC" Value="2013-11-14"/>
         <ItemData ItemOID="EX.EXSTDY" Value="1"/>
         <ItemData ItemOID="EX.EXENDY" Value="15"/>
      </ItemGroupData>
      <ItemGroupData data:ItemGroupDataSeq="165" ItemGroupOID="EX">
         <ItemData ItemOID="EX.STUDYID" Value="CDISCPILOT01"/>
         <ItemData ItemOID="EX.DOMAIN" Value="EX"/>
         <ItemData ItemOID="EX.USUBJID" Value="01-704-1135"/>
         <ItemData ItemOID="EX.EXSEQ" Value="2"/>
         <ItemData ItemOID="EX.EXTRT" Value="XANOMELINE"/>
         <ItemData ItemOID="EX.EXDOSE" Value="54"/>
         <ItemData ItemOID="EX.EXDOSU" Value="mg"/>
         <ItemData ItemOID="EX.EXDOSFRM" Value="PATCH"/>
         <ItemData ItemOID="EX.EXDOSFRQ" Value="QD"/>
         <ItemData ItemOID="EX.EXROUTE" Value="TRANSDERMAL"/>
         <ItemData ItemOID="EX.VISITNUM" Value="4"/>
         <ItemData ItemOID="EX.VISIT" Value="WEEK 2"/>
         <ItemData ItemOID="EX.VISITDY" Value="14"/>
         <ItemData ItemOID="EX.EXSTDTC" Value="2013-11-15"/>
         <ItemData ItemOID="EX.EXENDTC" Value="2014-05-01"/>
         <ItemData ItemOID="EX.EXSTDY" Value="16"/>
         <ItemData ItemOID="EX.EXENDY" Value="183"/>
      </ItemGroupData>
      <ItemGroupData data:ItemGroupDataSeq="166" ItemGroupOID="EX">
         <ItemData ItemOID="EX.STUDYID" Value="CDISCPILOT01"/>
         <ItemData ItemOID="EX.DOMAIN" Value="EX"/>
         <ItemData ItemOID="EX.USUBJID" Value="01-704-1135"/>
         <ItemData ItemOID="EX.EXSEQ" Value="3"/>
         <ItemData ItemOID="EX.EXTRT" Value="XANOMELINE"/>
         <ItemData ItemOID="EX.EXDOSE" Value="54"/>
         <ItemData ItemOID="EX.EXDOSU" Value="mg"/>
         <ItemData ItemOID="EX.EXDOSFRM" Value="PATCH"/>
         <ItemData ItemOID="EX.EXDOSFRQ" Value="QD"/>
         <ItemData ItemOID="EX.EXROUTE" Value="TRANSDERMAL"/>
         <ItemData ItemOID="EX.VISITNUM" Value="12"/>
         <ItemData ItemOID="EX.VISIT" Value="WEEK 24"/>
         <ItemData ItemOID="EX.VISITDY" Value="168"/>
         <ItemData ItemOID="EX.EXSTDTC" Value="2014-05-02"/>
         <ItemData ItemOID="EX.EXENDTC" Value="2014-05-16"/>
         <ItemData ItemOID="EX.EXSTDY" Value="184"/>
         <ItemData ItemOID="EX.EXENDY" Value="198"/>
      </ItemGroupData>
      <ItemGroupData data:ItemGroupDataSeq="167" ItemGroupOID="EX">
         <ItemData ItemOID="EX.STUDYID" Value="CDISCPILOT01"/>
         <ItemData ItemOID="EX.DOMAIN" Value="EX"/>
         <ItemData ItemOID="EX.USUBJID" Value="01-704-1164"/>
         <ItemData ItemOID="EX.EXSEQ" Value="1"/>
         <ItemData ItemOID="EX.EXTRT" Value="PLACEBO"/>
         <ItemData ItemOID="EX.EXDOSE" Value="0"/>
         <ItemData ItemOID="EX.EXDOSU" Value="mg"/>
         <ItemData ItemOID="EX.EXDOSFRM" Value="PATCH"/>
         <ItemData ItemOID="EX.EXDOSFRQ" Value="QD"/>
         <ItemData ItemOID="EX.EXROUTE" Value="TRANSDERMAL"/>
         <ItemData ItemOID="EX.VISITNUM" Value="3"/>
         <ItemData ItemOID="EX.VISIT" Value="BASELINE"/>
         <ItemData ItemOID="EX.VISITDY" Value="1"/>
         <ItemData ItemOID="EX.EXSTDTC" Value="2012-09-19"/>
         <ItemData ItemOID="EX.EXENDTC" Value="2012-10-04"/>
         <ItemData ItemOID="EX.EXSTDY" Value="1"/>
         <ItemData ItemOID="EX.EXENDY" Value="16"/>
      </ItemGroupData>
      <ItemGroupData data:ItemGroupDataSeq="168" ItemGroupOID="EX">
         <ItemData ItemOID="EX.STUDYID" Value="CDISCPILOT01"/>
         <ItemData ItemOID="EX.DOMAIN" Value="EX"/>
         <ItemData ItemOID="EX.USUBJID" Value="01-704-1164"/>
         <ItemData ItemOID="EX.EXSEQ" Value="2"/>
         <ItemData ItemOID="EX.EXTRT" Value="PLACEBO"/>
         <ItemData ItemOID="EX.EXDOSE" Value="0"/>
         <ItemData ItemOID="EX.EXDOSU" Value="mg"/>
         <ItemData ItemOID="EX.EXDOSFRM" Value="PATCH"/>
         <ItemData ItemOID="EX.EXDOSFRQ" Value="QD"/>
         <ItemData ItemOID="EX.EXROUTE" Value="TRANSDERMAL"/>
         <ItemData ItemOID="EX.VISITNUM" Value="4"/>
         <ItemData ItemOID="EX.VISIT" Value="WEEK 2"/>
         <ItemData ItemOID="EX.VISITDY" Value="14"/>
         <ItemData ItemOID="EX.EXSTDTC" Value="2012-10-05"/>
         <ItemData ItemOID="EX.EXENDTC" Value="2013-03-17"/>
         <ItemData ItemOID="EX.EXSTDY" Value="17"/>
         <ItemData ItemOID="EX.EXENDY" Value="180"/>
      </ItemGroupData>
      <ItemGroupData data:ItemGroupDataSeq="169" ItemGroupOID="EX">
         <ItemData ItemOID="EX.STUDYID" Value="CDISCPILOT01"/>
         <ItemData ItemOID="EX.DOMAIN" Value="EX"/>
         <ItemData ItemOID="EX.USUBJID" Value="01-704-1164"/>
         <ItemData ItemOID="EX.EXSEQ" Value="3"/>
         <ItemData ItemOID="EX.EXTRT" Value="PLACEBO"/>
         <ItemData ItemOID="EX.EXDOSE" Value="0"/>
         <ItemData ItemOID="EX.EXDOSU" Value="mg"/>
         <ItemData ItemOID="EX.EXDOSFRM" Value="PATCH"/>
         <ItemData ItemOID="EX.EXDOSFRQ" Value="QD"/>
         <ItemData ItemOID="EX.EXROUTE" Value="TRANSDERMAL"/>
         <ItemData ItemOID="EX.VISITNUM" Value="12"/>
         <ItemData ItemOID="EX.VISIT" Value="WEEK 24"/>
         <ItemData ItemOID="EX.VISITDY" Value="168"/>
         <ItemData ItemOID="EX.EXSTDTC" Value="2013-03-18"/>
         <ItemData ItemOID="EX.EXENDTC" Value="2013-04-04"/>
         <ItemData ItemOID="EX.EXSTDY" Value="181"/>
         <ItemData ItemOID="EX.EXENDY" Value="198"/>
      </ItemGroupData>
      <ItemGroupData data:ItemGroupDataSeq="170" ItemGroupOID="EX">
         <ItemData ItemOID="EX.STUDYID" Value="CDISCPILOT01"/>
         <ItemData ItemOID="EX.DOMAIN" Value="EX"/>
         <ItemData ItemOID="EX.USUBJID" Value="01-704-1218"/>
         <ItemData ItemOID="EX.EXSEQ" Value="1"/>
         <ItemData ItemOID="EX.EXTRT" Value="XANOMELINE"/>
         <ItemData ItemOID="EX.EXDOSE" Value="54"/>
         <ItemData ItemOID="EX.EXDOSU" Value="mg"/>
         <ItemData ItemOID="EX.EXDOSFRM" Value="PATCH"/>
         <ItemData ItemOID="EX.EXDOSFRQ" Value="QD"/>
         <ItemData ItemOID="EX.EXROUTE" Value="TRANSDERMAL"/>
         <ItemData ItemOID="EX.VISITNUM" Value="3"/>
         <ItemData ItemOID="EX.VISIT" Value="BASELINE"/>
         <ItemData ItemOID="EX.VISITDY" Value="1"/>
         <ItemData ItemOID="EX.EXSTDTC" Value="2012-11-19"/>
         <ItemData ItemOID="EX.EXENDTC" Value="2012-12-03"/>
         <ItemData ItemOID="EX.EXSTDY" Value="1"/>
         <ItemData ItemOID="EX.EXENDY" Value="15"/>
      </ItemGroupData>
      <ItemGroupData data:ItemGroupDataSeq="171" ItemGroupOID="EX">
         <ItemData ItemOID="EX.STUDYID" Value="CDISCPILOT01"/>
         <ItemData ItemOID="EX.DOMAIN" Value="EX"/>
         <ItemData ItemOID="EX.USUBJID" Value="01-704-1218"/>
         <ItemData ItemOID="EX.EXSEQ" Value="2"/>
         <ItemData ItemOID="EX.EXTRT" Value="XANOMELINE"/>
         <ItemData ItemOID="EX.EXDOSE" Value="54"/>
         <ItemData ItemOID="EX.EXDOSU" Value="mg"/>
         <ItemData ItemOID="EX.EXDOSFRM" Value="PATCH"/>
         <ItemData ItemOID="EX.EXDOSFRQ" Value="QD"/>
         <ItemData ItemOID="EX.EXROUTE" Value="TRANSDERMAL"/>
         <ItemData ItemOID="EX.VISITNUM" Value="4"/>
         <ItemData ItemOID="EX.VISIT" Value="WEEK 2"/>
         <ItemData ItemOID="EX.VISITDY" Value="14"/>
         <ItemData ItemOID="EX.EXSTDTC" Value="2012-12-04"/>
         <ItemData ItemOID="EX.EXENDTC" Value="2013-05-13"/>
         <ItemData ItemOID="EX.EXSTDY" Value="16"/>
         <ItemData ItemOID="EX.EXENDY" Value="176"/>
      </ItemGroupData>
      <ItemGroupData data:ItemGroupDataSeq="172" ItemGroupOID="EX">
         <ItemData ItemOID="EX.STUDYID" Value="CDISCPILOT01"/>
         <ItemData ItemOID="EX.DOMAIN" Value="EX"/>
         <ItemData ItemOID="EX.USUBJID" Value="01-704-1218"/>
         <ItemData ItemOID="EX.EXSEQ" Value="3"/>
         <ItemData ItemOID="EX.EXTRT" Value="XANOMELINE"/>
         <ItemData ItemOID="EX.EXDOSE" Value="54"/>
         <ItemData ItemOID="EX.EXDOSU" Value="mg"/>
         <ItemData ItemOID="EX.EXDOSFRM" Value="PATCH"/>
         <ItemData ItemOID="EX.EXDOSFRQ" Value="QD"/>
         <ItemData ItemOID="EX.EXROUTE" Value="TRANSDERMAL"/>
         <ItemData ItemOID="EX.VISITNUM" Value="12"/>
         <ItemData ItemOID="EX.VISIT" Value="WEEK 24"/>
         <ItemData ItemOID="EX.VISITDY" Value="168"/>
         <ItemData ItemOID="EX.EXSTDTC" Value="2013-05-14"/>
         <ItemData ItemOID="EX.EXENDTC" Value="2013-05-27"/>
         <ItemData ItemOID="EX.EXSTDY" Value="177"/>
         <ItemData ItemOID="EX.EXENDY" Value="190"/>
      </ItemGroupData>
      <ItemGroupData data:ItemGroupDataSeq="173" ItemGroupOID="EX">
         <ItemData ItemOID="EX.STUDYID" Value="CDISCPILOT01"/>
         <ItemData ItemOID="EX.DOMAIN" Value="EX"/>
         <ItemData ItemOID="EX.USUBJID" Value="01-704-1233"/>
         <ItemData ItemOID="EX.EXSEQ" Value="1"/>
         <ItemData ItemOID="EX.EXTRT" Value="PLACEBO"/>
         <ItemData ItemOID="EX.EXDOSE" Value="0"/>
         <ItemData ItemOID="EX.EXDOSU" Value="mg"/>
         <ItemData ItemOID="EX.EXDOSFRM" Value="PATCH"/>
         <ItemData ItemOID="EX.EXDOSFRQ" Value="QD"/>
         <ItemData ItemOID="EX.EXROUTE" Value="TRANSDERMAL"/>
         <ItemData ItemOID="EX.VISITNUM" Value="3"/>
         <ItemData ItemOID="EX.VISIT" Value="BASELINE"/>
         <ItemData ItemOID="EX.VISITDY" Value="1"/>
         <ItemData ItemOID="EX.EXSTDTC" Value="2013-03-21"/>
         <ItemData ItemOID="EX.EXENDTC" Value="2013-04-04"/>
         <ItemData ItemOID="EX.EXSTDY" Value="1"/>
         <ItemData ItemOID="EX.EXENDY" Value="15"/>
      </ItemGroupData>
      <ItemGroupData data:ItemGroupDataSeq="174" ItemGroupOID="EX">
         <ItemData ItemOID="EX.STUDYID" Value="CDISCPILOT01"/>
         <ItemData ItemOID="EX.DOMAIN" Value="EX"/>
         <ItemData ItemOID="EX.USUBJID" Value="01-704-1233"/>
         <ItemData ItemOID="EX.EXSEQ" Value="2"/>
         <ItemData ItemOID="EX.EXTRT" Value="PLACEBO"/>
         <ItemData ItemOID="EX.EXDOSE" Value="0"/>
         <ItemData ItemOID="EX.EXDOSU" Value="mg"/>
         <ItemData ItemOID="EX.EXDOSFRM" Value="PATCH"/>
         <ItemData ItemOID="EX.EXDOSFRQ" Value="QD"/>
         <ItemData ItemOID="EX.EXROUTE" Value="TRANSDERMAL"/>
         <ItemData ItemOID="EX.VISITNUM" Value="4"/>
         <ItemData ItemOID="EX.VISIT" Value="WEEK 2"/>
         <ItemData ItemOID="EX.VISITDY" Value="14"/>
         <ItemData ItemOID="EX.EXSTDTC" Value="2013-04-05"/>
         <ItemData ItemOID="EX.EXSTDY" Value="16"/>
      </ItemGroupData>
      <ItemGroupData data:ItemGroupDataSeq="175" ItemGroupOID="EX">
         <ItemData ItemOID="EX.STUDYID" Value="CDISCPILOT01"/>
         <ItemData ItemOID="EX.DOMAIN" Value="EX"/>
         <ItemData ItemOID="EX.USUBJID" Value="01-704-1241"/>
         <ItemData ItemOID="EX.EXSEQ" Value="1"/>
         <ItemData ItemOID="EX.EXTRT" Value="XANOMELINE"/>
         <ItemData ItemOID="EX.EXDOSE" Value="54"/>
         <ItemData ItemOID="EX.EXDOSU" Value="mg"/>
         <ItemData ItemOID="EX.EXDOSFRM" Value="PATCH"/>
         <ItemData ItemOID="EX.EXDOSFRQ" Value="QD"/>
         <ItemData ItemOID="EX.EXROUTE" Value="TRANSDERMAL"/>
         <ItemData ItemOID="EX.VISITNUM" Value="3"/>
         <ItemData ItemOID="EX.VISIT" Value="BASELINE"/>
         <ItemData ItemOID="EX.VISITDY" Value="1"/>
         <ItemData ItemOID="EX.EXSTDTC" Value="2013-08-25"/>
         <ItemData ItemOID="EX.EXENDTC" Value="2013-09-05"/>
         <ItemData ItemOID="EX.EXSTDY" Value="1"/>
         <ItemData ItemOID="EX.EXENDY" Value="12"/>
      </ItemGroupData>
      <ItemGroupData data:ItemGroupDataSeq="176" ItemGroupOID="EX">
         <ItemData ItemOID="EX.STUDYID" Value="CDISCPILOT01"/>
         <ItemData ItemOID="EX.DOMAIN" Value="EX"/>
         <ItemData ItemOID="EX.USUBJID" Value="01-704-1241"/>
         <ItemData ItemOID="EX.EXSEQ" Value="2"/>
         <ItemData ItemOID="EX.EXTRT" Value="XANOMELINE"/>
         <ItemData ItemOID="EX.EXDOSE" Value="81"/>
         <ItemData ItemOID="EX.EXDOSU" Value="mg"/>
         <ItemData ItemOID="EX.EXDOSFRM" Value="PATCH"/>
         <ItemData ItemOID="EX.EXDOSFRQ" Value="QD"/>
         <ItemData ItemOID="EX.EXROUTE" Value="TRANSDERMAL"/>
         <ItemData ItemOID="EX.VISITNUM" Value="4"/>
         <ItemData ItemOID="EX.VISIT" Value="WEEK 2"/>
         <ItemData ItemOID="EX.VISITDY" Value="14"/>
         <ItemData ItemOID="EX.EXSTDTC" Value="2013-09-06"/>
         <ItemData ItemOID="EX.EXENDTC" Value="2013-10-09"/>
         <ItemData ItemOID="EX.EXSTDY" Value="13"/>
         <ItemData ItemOID="EX.EXENDY" Value="46"/>
      </ItemGroupData>
      <ItemGroupData data:ItemGroupDataSeq="177" ItemGroupOID="EX">
         <ItemData ItemOID="EX.STUDYID" Value="CDISCPILOT01"/>
         <ItemData ItemOID="EX.DOMAIN" Value="EX"/>
         <ItemData ItemOID="EX.USUBJID" Value="01-704-1260"/>
         <ItemData ItemOID="EX.EXSEQ" Value="1"/>
         <ItemData ItemOID="EX.EXTRT" Value="PLACEBO"/>
         <ItemData ItemOID="EX.EXDOSE" Value="0"/>
         <ItemData ItemOID="EX.EXDOSU" Value="mg"/>
         <ItemData ItemOID="EX.EXDOSFRM" Value="PATCH"/>
         <ItemData ItemOID="EX.EXDOSFRQ" Value="QD"/>
         <ItemData ItemOID="EX.EXROUTE" Value="TRANSDERMAL"/>
         <ItemData ItemOID="EX.VISITNUM" Value="3"/>
         <ItemData ItemOID="EX.VISIT" Value="BASELINE"/>
         <ItemData ItemOID="EX.VISITDY" Value="1"/>
         <ItemData ItemOID="EX.EXSTDTC" Value="2012-08-30"/>
         <ItemData ItemOID="EX.EXENDTC" Value="2012-09-13"/>
         <ItemData ItemOID="EX.EXSTDY" Value="1"/>
         <ItemData ItemOID="EX.EXENDY" Value="15"/>
      </ItemGroupData>
      <ItemGroupData data:ItemGroupDataSeq="178" ItemGroupOID="EX">
         <ItemData ItemOID="EX.STUDYID" Value="CDISCPILOT01"/>
         <ItemData ItemOID="EX.DOMAIN" Value="EX"/>
         <ItemData ItemOID="EX.USUBJID" Value="01-704-1260"/>
         <ItemData ItemOID="EX.EXSEQ" Value="2"/>
         <ItemData ItemOID="EX.EXTRT" Value="PLACEBO"/>
         <ItemData ItemOID="EX.EXDOSE" Value="0"/>
         <ItemData ItemOID="EX.EXDOSU" Value="mg"/>
         <ItemData ItemOID="EX.EXDOSFRM" Value="PATCH"/>
         <ItemData ItemOID="EX.EXDOSFRQ" Value="QD"/>
         <ItemData ItemOID="EX.EXROUTE" Value="TRANSDERMAL"/>
         <ItemData ItemOID="EX.VISITNUM" Value="4"/>
         <ItemData ItemOID="EX.VISIT" Value="WEEK 2"/>
         <ItemData ItemOID="EX.VISITDY" Value="14"/>
         <ItemData ItemOID="EX.EXSTDTC" Value="2012-09-14"/>
         <ItemData ItemOID="EX.EXENDTC" Value="2012-11-04"/>
         <ItemData ItemOID="EX.EXSTDY" Value="16"/>
         <ItemData ItemOID="EX.EXENDY" Value="67"/>
      </ItemGroupData>
      <ItemGroupData data:ItemGroupDataSeq="179" ItemGroupOID="EX">
         <ItemData ItemOID="EX.STUDYID" Value="CDISCPILOT01"/>
         <ItemData ItemOID="EX.DOMAIN" Value="EX"/>
         <ItemData ItemOID="EX.USUBJID" Value="01-704-1266"/>
         <ItemData ItemOID="EX.EXSEQ" Value="1"/>
         <ItemData ItemOID="EX.EXTRT" Value="XANOMELINE"/>
         <ItemData ItemOID="EX.EXDOSE" Value="54"/>
         <ItemData ItemOID="EX.EXDOSU" Value="mg"/>
         <ItemData ItemOID="EX.EXDOSFRM" Value="PATCH"/>
         <ItemData ItemOID="EX.EXDOSFRQ" Value="QD"/>
         <ItemData ItemOID="EX.EXROUTE" Value="TRANSDERMAL"/>
         <ItemData ItemOID="EX.VISITNUM" Value="3"/>
         <ItemData ItemOID="EX.VISIT" Value="BASELINE"/>
         <ItemData ItemOID="EX.VISITDY" Value="1"/>
         <ItemData ItemOID="EX.EXSTDTC" Value="2013-10-13"/>
         <ItemData ItemOID="EX.EXENDTC" Value="2013-10-27"/>
         <ItemData ItemOID="EX.EXSTDY" Value="1"/>
         <ItemData ItemOID="EX.EXENDY" Value="15"/>
      </ItemGroupData>
      <ItemGroupData data:ItemGroupDataSeq="180" ItemGroupOID="EX">
         <ItemData ItemOID="EX.STUDYID" Value="CDISCPILOT01"/>
         <ItemData ItemOID="EX.DOMAIN" Value="EX"/>
         <ItemData ItemOID="EX.USUBJID" Value="01-704-1266"/>
         <ItemData ItemOID="EX.EXSEQ" Value="2"/>
         <ItemData ItemOID="EX.EXTRT" Value="XANOMELINE"/>
         <ItemData ItemOID="EX.EXDOSE" Value="81"/>
         <ItemData ItemOID="EX.EXDOSU" Value="mg"/>
         <ItemData ItemOID="EX.EXDOSFRM" Value="PATCH"/>
         <ItemData ItemOID="EX.EXDOSFRQ" Value="QD"/>
         <ItemData ItemOID="EX.EXROUTE" Value="TRANSDERMAL"/>
         <ItemData ItemOID="EX.VISITNUM" Value="4"/>
         <ItemData ItemOID="EX.VISIT" Value="WEEK 2"/>
         <ItemData ItemOID="EX.VISITDY" Value="14"/>
         <ItemData ItemOID="EX.EXSTDTC" Value="2013-10-28"/>
         <ItemData ItemOID="EX.EXENDTC" Value="2013-12-06"/>
         <ItemData ItemOID="EX.EXSTDY" Value="16"/>
         <ItemData ItemOID="EX.EXENDY" Value="55"/>
      </ItemGroupData>
      <ItemGroupData data:ItemGroupDataSeq="181" ItemGroupOID="EX">
         <ItemData ItemOID="EX.STUDYID" Value="CDISCPILOT01"/>
         <ItemData ItemOID="EX.DOMAIN" Value="EX"/>
         <ItemData ItemOID="EX.USUBJID" Value="01-704-1323"/>
         <ItemData ItemOID="EX.EXSEQ" Value="1"/>
         <ItemData ItemOID="EX.EXTRT" Value="XANOMELINE"/>
         <ItemData ItemOID="EX.EXDOSE" Value="54"/>
         <ItemData ItemOID="EX.EXDOSU" Value="mg"/>
         <ItemData ItemOID="EX.EXDOSFRM" Value="PATCH"/>
         <ItemData ItemOID="EX.EXDOSFRQ" Value="QD"/>
         <ItemData ItemOID="EX.EXROUTE" Value="TRANSDERMAL"/>
         <ItemData ItemOID="EX.VISITNUM" Value="3"/>
         <ItemData ItemOID="EX.VISIT" Value="BASELINE"/>
         <ItemData ItemOID="EX.VISITDY" Value="1"/>
         <ItemData ItemOID="EX.EXSTDTC" Value="2013-07-08"/>
         <ItemData ItemOID="EX.EXENDTC" Value="2013-07-23"/>
         <ItemData ItemOID="EX.EXSTDY" Value="1"/>
         <ItemData ItemOID="EX.EXENDY" Value="16"/>
      </ItemGroupData>
      <ItemGroupData data:ItemGroupDataSeq="182" ItemGroupOID="EX">
         <ItemData ItemOID="EX.STUDYID" Value="CDISCPILOT01"/>
         <ItemData ItemOID="EX.DOMAIN" Value="EX"/>
         <ItemData ItemOID="EX.USUBJID" Value="01-704-1323"/>
         <ItemData ItemOID="EX.EXSEQ" Value="2"/>
         <ItemData ItemOID="EX.EXTRT" Value="XANOMELINE"/>
         <ItemData ItemOID="EX.EXDOSE" Value="54"/>
         <ItemData ItemOID="EX.EXDOSU" Value="mg"/>
         <ItemData ItemOID="EX.EXDOSFRM" Value="PATCH"/>
         <ItemData ItemOID="EX.EXDOSFRQ" Value="QD"/>
         <ItemData ItemOID="EX.EXROUTE" Value="TRANSDERMAL"/>
         <ItemData ItemOID="EX.VISITNUM" Value="4"/>
         <ItemData ItemOID="EX.VISIT" Value="WEEK 2"/>
         <ItemData ItemOID="EX.VISITDY" Value="14"/>
         <ItemData ItemOID="EX.EXSTDTC" Value="2013-07-24"/>
         <ItemData ItemOID="EX.EXENDTC" Value="2013-08-05"/>
         <ItemData ItemOID="EX.EXSTDY" Value="17"/>
         <ItemData ItemOID="EX.EXENDY" Value="29"/>
      </ItemGroupData>
      <ItemGroupData data:ItemGroupDataSeq="183" ItemGroupOID="EX">
         <ItemData ItemOID="EX.STUDYID" Value="CDISCPILOT01"/>
         <ItemData ItemOID="EX.DOMAIN" Value="EX"/>
         <ItemData ItemOID="EX.USUBJID" Value="01-704-1325"/>
         <ItemData ItemOID="EX.EXSEQ" Value="1"/>
         <ItemData ItemOID="EX.EXTRT" Value="XANOMELINE"/>
         <ItemData ItemOID="EX.EXDOSE" Value="54"/>
         <ItemData ItemOID="EX.EXDOSU" Value="mg"/>
         <ItemData ItemOID="EX.EXDOSFRM" Value="PATCH"/>
         <ItemData ItemOID="EX.EXDOSFRQ" Value="QD"/>
         <ItemData ItemOID="EX.EXROUTE" Value="TRANSDERMAL"/>
         <ItemData ItemOID="EX.VISITNUM" Value="3"/>
         <ItemData ItemOID="EX.VISIT" Value="BASELINE"/>
         <ItemData ItemOID="EX.VISITDY" Value="1"/>
         <ItemData ItemOID="EX.EXSTDTC" Value="2014-04-23"/>
         <ItemData ItemOID="EX.EXENDTC" Value="2014-05-07"/>
         <ItemData ItemOID="EX.EXSTDY" Value="1"/>
         <ItemData ItemOID="EX.EXENDY" Value="15"/>
      </ItemGroupData>
      <ItemGroupData data:ItemGroupDataSeq="184" ItemGroupOID="EX">
         <ItemData ItemOID="EX.STUDYID" Value="CDISCPILOT01"/>
         <ItemData ItemOID="EX.DOMAIN" Value="EX"/>
         <ItemData ItemOID="EX.USUBJID" Value="01-704-1325"/>
         <ItemData ItemOID="EX.EXSEQ" Value="2"/>
         <ItemData ItemOID="EX.EXTRT" Value="XANOMELINE"/>
         <ItemData ItemOID="EX.EXDOSE" Value="54"/>
         <ItemData ItemOID="EX.EXDOSU" Value="mg"/>
         <ItemData ItemOID="EX.EXDOSFRM" Value="PATCH"/>
         <ItemData ItemOID="EX.EXDOSFRQ" Value="QD"/>
         <ItemData ItemOID="EX.EXROUTE" Value="TRANSDERMAL"/>
         <ItemData ItemOID="EX.VISITNUM" Value="4"/>
         <ItemData ItemOID="EX.VISIT" Value="WEEK 2"/>
         <ItemData ItemOID="EX.VISITDY" Value="14"/>
         <ItemData ItemOID="EX.EXSTDTC" Value="2014-05-08"/>
         <ItemData ItemOID="EX.EXENDTC" Value="2014-07-04"/>
         <ItemData ItemOID="EX.EXSTDY" Value="16"/>
         <ItemData ItemOID="EX.EXENDY" Value="73"/>
      </ItemGroupData>
      <ItemGroupData data:ItemGroupDataSeq="185" ItemGroupOID="EX">
         <ItemData ItemOID="EX.STUDYID" Value="CDISCPILOT01"/>
         <ItemData ItemOID="EX.DOMAIN" Value="EX"/>
         <ItemData ItemOID="EX.USUBJID" Value="01-704-1332"/>
         <ItemData ItemOID="EX.EXSEQ" Value="1"/>
         <ItemData ItemOID="EX.EXTRT" Value="XANOMELINE"/>
         <ItemData ItemOID="EX.EXDOSE" Value="54"/>
         <ItemData ItemOID="EX.EXDOSU" Value="mg"/>
         <ItemData ItemOID="EX.EXDOSFRM" Value="PATCH"/>
         <ItemData ItemOID="EX.EXDOSFRQ" Value="QD"/>
         <ItemData ItemOID="EX.EXROUTE" Value="TRANSDERMAL"/>
         <ItemData ItemOID="EX.VISITNUM" Value="3"/>
         <ItemData ItemOID="EX.VISIT" Value="BASELINE"/>
         <ItemData ItemOID="EX.VISITDY" Value="1"/>
         <ItemData ItemOID="EX.EXSTDTC" Value="2013-12-09"/>
         <ItemData ItemOID="EX.EXENDTC" Value="2013-12-23"/>
         <ItemData ItemOID="EX.EXSTDY" Value="1"/>
         <ItemData ItemOID="EX.EXENDY" Value="15"/>
      </ItemGroupData>
      <ItemGroupData data:ItemGroupDataSeq="186" ItemGroupOID="EX">
         <ItemData ItemOID="EX.STUDYID" Value="CDISCPILOT01"/>
         <ItemData ItemOID="EX.DOMAIN" Value="EX"/>
         <ItemData ItemOID="EX.USUBJID" Value="01-704-1332"/>
         <ItemData ItemOID="EX.EXSEQ" Value="2"/>
         <ItemData ItemOID="EX.EXTRT" Value="XANOMELINE"/>
         <ItemData ItemOID="EX.EXDOSE" Value="81"/>
         <ItemData ItemOID="EX.EXDOSU" Value="mg"/>
         <ItemData ItemOID="EX.EXDOSFRM" Value="PATCH"/>
         <ItemData ItemOID="EX.EXDOSFRQ" Value="QD"/>
         <ItemData ItemOID="EX.EXROUTE" Value="TRANSDERMAL"/>
         <ItemData ItemOID="EX.VISITNUM" Value="4"/>
         <ItemData ItemOID="EX.VISIT" Value="WEEK 2"/>
         <ItemData ItemOID="EX.VISITDY" Value="14"/>
         <ItemData ItemOID="EX.EXSTDTC" Value="2013-12-24"/>
         <ItemData ItemOID="EX.EXENDTC" Value="2014-02-14"/>
         <ItemData ItemOID="EX.EXSTDY" Value="16"/>
         <ItemData ItemOID="EX.EXENDY" Value="68"/>
      </ItemGroupData>
      <ItemGroupData data:ItemGroupDataSeq="187" ItemGroupOID="EX">
         <ItemData ItemOID="EX.STUDYID" Value="CDISCPILOT01"/>
         <ItemData ItemOID="EX.DOMAIN" Value="EX"/>
         <ItemData ItemOID="EX.USUBJID" Value="01-704-1351"/>
         <ItemData ItemOID="EX.EXSEQ" Value="1"/>
         <ItemData ItemOID="EX.EXTRT" Value="PLACEBO"/>
         <ItemData ItemOID="EX.EXDOSE" Value="0"/>
         <ItemData ItemOID="EX.EXDOSU" Value="mg"/>
         <ItemData ItemOID="EX.EXDOSFRM" Value="PATCH"/>
         <ItemData ItemOID="EX.EXDOSFRQ" Value="QD"/>
         <ItemData ItemOID="EX.EXROUTE" Value="TRANSDERMAL"/>
         <ItemData ItemOID="EX.VISITNUM" Value="3"/>
         <ItemData ItemOID="EX.VISIT" Value="BASELINE"/>
         <ItemData ItemOID="EX.VISITDY" Value="1"/>
         <ItemData ItemOID="EX.EXSTDTC" Value="2013-10-12"/>
         <ItemData ItemOID="EX.EXENDTC" Value="2013-10-26"/>
         <ItemData ItemOID="EX.EXSTDY" Value="1"/>
         <ItemData ItemOID="EX.EXENDY" Value="15"/>
      </ItemGroupData>
      <ItemGroupData data:ItemGroupDataSeq="188" ItemGroupOID="EX">
         <ItemData ItemOID="EX.STUDYID" Value="CDISCPILOT01"/>
         <ItemData ItemOID="EX.DOMAIN" Value="EX"/>
         <ItemData ItemOID="EX.USUBJID" Value="01-704-1351"/>
         <ItemData ItemOID="EX.EXSEQ" Value="2"/>
         <ItemData ItemOID="EX.EXTRT" Value="PLACEBO"/>
         <ItemData ItemOID="EX.EXDOSE" Value="0"/>
         <ItemData ItemOID="EX.EXDOSU" Value="mg"/>
         <ItemData ItemOID="EX.EXDOSFRM" Value="PATCH"/>
         <ItemData ItemOID="EX.EXDOSFRQ" Value="QD"/>
         <ItemData ItemOID="EX.EXROUTE" Value="TRANSDERMAL"/>
         <ItemData ItemOID="EX.VISITNUM" Value="4"/>
         <ItemData ItemOID="EX.VISIT" Value="WEEK 2"/>
         <ItemData ItemOID="EX.VISITDY" Value="14"/>
         <ItemData ItemOID="EX.EXSTDTC" Value="2013-10-27"/>
         <ItemData ItemOID="EX.EXENDTC" Value="2014-04-04"/>
         <ItemData ItemOID="EX.EXSTDY" Value="16"/>
         <ItemData ItemOID="EX.EXENDY" Value="175"/>
      </ItemGroupData>
      <ItemGroupData data:ItemGroupDataSeq="189" ItemGroupOID="EX">
         <ItemData ItemOID="EX.STUDYID" Value="CDISCPILOT01"/>
         <ItemData ItemOID="EX.DOMAIN" Value="EX"/>
         <ItemData ItemOID="EX.USUBJID" Value="01-704-1351"/>
         <ItemData ItemOID="EX.EXSEQ" Value="3"/>
         <ItemData ItemOID="EX.EXTRT" Value="PLACEBO"/>
         <ItemData ItemOID="EX.EXDOSE" Value="0"/>
         <ItemData ItemOID="EX.EXDOSU" Value="mg"/>
         <ItemData ItemOID="EX.EXDOSFRM" Value="PATCH"/>
         <ItemData ItemOID="EX.EXDOSFRQ" Value="QD"/>
         <ItemData ItemOID="EX.EXROUTE" Value="TRANSDERMAL"/>
         <ItemData ItemOID="EX.VISITNUM" Value="12"/>
         <ItemData ItemOID="EX.VISIT" Value="WEEK 24"/>
         <ItemData ItemOID="EX.VISITDY" Value="168"/>
         <ItemData ItemOID="EX.EXSTDTC" Value="2014-04-05"/>
         <ItemData ItemOID="EX.EXENDTC" Value="2014-04-18"/>
         <ItemData ItemOID="EX.EXSTDY" Value="176"/>
         <ItemData ItemOID="EX.EXENDY" Value="189"/>
      </ItemGroupData>
      <ItemGroupData data:ItemGroupDataSeq="190" ItemGroupOID="EX">
         <ItemData ItemOID="EX.STUDYID" Value="CDISCPILOT01"/>
         <ItemData ItemOID="EX.DOMAIN" Value="EX"/>
         <ItemData ItemOID="EX.USUBJID" Value="01-704-1388"/>
         <ItemData ItemOID="EX.EXSEQ" Value="1"/>
         <ItemData ItemOID="EX.EXTRT" Value="PLACEBO"/>
         <ItemData ItemOID="EX.EXDOSE" Value="0"/>
         <ItemData ItemOID="EX.EXDOSU" Value="mg"/>
         <ItemData ItemOID="EX.EXDOSFRM" Value="PATCH"/>
         <ItemData ItemOID="EX.EXDOSFRQ" Value="QD"/>
         <ItemData ItemOID="EX.EXROUTE" Value="TRANSDERMAL"/>
         <ItemData ItemOID="EX.VISITNUM" Value="3"/>
         <ItemData ItemOID="EX.VISIT" Value="BASELINE"/>
         <ItemData ItemOID="EX.VISITDY" Value="1"/>
         <ItemData ItemOID="EX.EXSTDTC" Value="2012-12-07"/>
         <ItemData ItemOID="EX.EXENDTC" Value="2012-12-21"/>
         <ItemData ItemOID="EX.EXSTDY" Value="1"/>
         <ItemData ItemOID="EX.EXENDY" Value="15"/>
      </ItemGroupData>
      <ItemGroupData data:ItemGroupDataSeq="191" ItemGroupOID="EX">
         <ItemData ItemOID="EX.STUDYID" Value="CDISCPILOT01"/>
         <ItemData ItemOID="EX.DOMAIN" Value="EX"/>
         <ItemData ItemOID="EX.USUBJID" Value="01-704-1388"/>
         <ItemData ItemOID="EX.EXSEQ" Value="2"/>
         <ItemData ItemOID="EX.EXTRT" Value="PLACEBO"/>
         <ItemData ItemOID="EX.EXDOSE" Value="0"/>
         <ItemData ItemOID="EX.EXDOSU" Value="mg"/>
         <ItemData ItemOID="EX.EXDOSFRM" Value="PATCH"/>
         <ItemData ItemOID="EX.EXDOSFRQ" Value="QD"/>
         <ItemData ItemOID="EX.EXROUTE" Value="TRANSDERMAL"/>
         <ItemData ItemOID="EX.VISITNUM" Value="4"/>
         <ItemData ItemOID="EX.VISIT" Value="WEEK 2"/>
         <ItemData ItemOID="EX.VISITDY" Value="14"/>
         <ItemData ItemOID="EX.EXSTDTC" Value="2012-12-22"/>
         <ItemData ItemOID="EX.EXENDTC" Value="2013-05-23"/>
         <ItemData ItemOID="EX.EXSTDY" Value="16"/>
         <ItemData ItemOID="EX.EXENDY" Value="168"/>
      </ItemGroupData>
      <ItemGroupData data:ItemGroupDataSeq="192" ItemGroupOID="EX">
         <ItemData ItemOID="EX.STUDYID" Value="CDISCPILOT01"/>
         <ItemData ItemOID="EX.DOMAIN" Value="EX"/>
         <ItemData ItemOID="EX.USUBJID" Value="01-704-1388"/>
         <ItemData ItemOID="EX.EXSEQ" Value="3"/>
         <ItemData ItemOID="EX.EXTRT" Value="PLACEBO"/>
         <ItemData ItemOID="EX.EXDOSE" Value="0"/>
         <ItemData ItemOID="EX.EXDOSU" Value="mg"/>
         <ItemData ItemOID="EX.EXDOSFRM" Value="PATCH"/>
         <ItemData ItemOID="EX.EXDOSFRQ" Value="QD"/>
         <ItemData ItemOID="EX.EXROUTE" Value="TRANSDERMAL"/>
         <ItemData ItemOID="EX.VISITNUM" Value="12"/>
         <ItemData ItemOID="EX.VISIT" Value="WEEK 24"/>
         <ItemData ItemOID="EX.VISITDY" Value="168"/>
         <ItemData ItemOID="EX.EXSTDTC" Value="2013-05-24"/>
         <ItemData ItemOID="EX.EXENDTC" Value="2013-06-11"/>
         <ItemData ItemOID="EX.EXSTDY" Value="169"/>
         <ItemData ItemOID="EX.EXENDY" Value="187"/>
      </ItemGroupData>
