<?xml version="1.0" encoding="UTF-8"?>
<ODM xmlns:data="http://www.cdisc.org/ns/Dataset-XML/v1.0"
     xmlns="http://www.cdisc.org/ns/odm/v1.3"
     data:DatasetXMLVersion="1.0.0"
     ODMVersion="1.3.2"
     FileType="Snapshot"
     FileOID="SDTM-XML"
     CreationDateTime="2012-12-08T23:06:03.046+01:00">
   <ClinicalData StudyOID="LZZT" MetaDataVersionOID="CDISC.SDTM.3.1.0">
      <ItemGroupData data:ItemGroupDataSeq="1" ItemGroupOID="SE">
         <ItemData ItemOID="SE.STUDYID" Value="CDISCPILOT01"/>
         <ItemData ItemOID="SE.DOMAIN" Value="SE"/>
         <ItemData ItemOID="SE.USUBJID" Value="01-701-1015"/>
         <ItemData ItemOID="SE.SESEQ" Value="1"/>
         <ItemData ItemOID="SE.ETCD" Value="SCRN"/>
         <ItemData ItemOID="SE.ELEMENT" Value="Screen"/>
         <ItemData ItemOID="SE.SESTDTC" Value="2013-12-26"/>
         <ItemData ItemOID="SE.SEENDTC" Value="2014-01-02"/>
      </ItemGroupData>
      <ItemGroupData data:ItemGroupDataSeq="2" ItemGroupOID="SE">
         <ItemData ItemOID="SE.STUDYID" Value="CDISCPILOT01"/>
         <ItemData ItemOID="SE.DOMAIN" Value="SE"/>
         <ItemData ItemOID="SE.USUBJID" Value="01-701-1015"/>
         <ItemData ItemOID="SE.SESEQ" Value="4"/>
         <ItemData ItemOID="SE.ETCD" Value="PBO"/>
         <ItemData ItemOID="SE.ELEMENT" Value="Placebo"/>
         <ItemData ItemOID="SE.SESTDTC" Value="2014-01-02"/>
         <ItemData ItemOID="SE.SEENDTC" Value="2014-07-02"/>
      </ItemGroupData>
      <ItemGroupData data:ItemGroupDataSeq="3" ItemGroupOID="SE">
         <ItemData ItemOID="SE.STUDYID" Value="CDISCPILOT01"/>
         <ItemData ItemOID="SE.DOMAIN" Value="SE"/>
         <ItemData ItemOID="SE.USUBJID" Value="01-701-1023"/>
         <ItemData ItemOID="SE.SESEQ" Value="1"/>
         <ItemData ItemOID="SE.ETCD" Value="SCRN"/>
         <ItemData ItemOID="SE.ELEMENT" Value="Screen"/>
         <ItemData ItemOID="SE.SESTDTC" Value="2012-07-22"/>
         <ItemData ItemOID="SE.SEENDTC" Value="2012-08-05"/>
      </ItemGroupData>
      <ItemGroupData data:ItemGroupDataSeq="4" ItemGroupOID="SE">
         <ItemData ItemOID="SE.STUDYID" Value="CDISCPILOT01"/>
         <ItemData ItemOID="SE.DOMAIN" Value="SE"/>
         <ItemData ItemOID="SE.USUBJID" Value="01-701-1023"/>
         <ItemData ItemOID="SE.SESEQ" Value="4"/>
         <ItemData ItemOID="SE.ETCD" Value="PBO"/>
         <ItemData ItemOID="SE.ELEMENT" Value="Placebo"/>
         <ItemData ItemOID="SE.SESTDTC" Value="2012-08-05"/>
         <ItemData ItemOID="SE.SEENDTC" Value="2013-02-18"/>
      </ItemGroupData>
      <ItemGroupData data:ItemGroupDataSeq="5" ItemGroupOID="SE">
         <ItemData ItemOID="SE.STUDYID" Value="CDISCPILOT01"/>
         <ItemData ItemOID="SE.DOMAIN" Value="SE"/>
         <ItemData ItemOID="SE.USUBJID" Value="01-701-1023"/>
         <ItemData ItemOID="SE.SESEQ" Value="6"/>
         <ItemData ItemOID="SE.ETCD" Value="FOLO"/>
         <ItemData ItemOID="SE.ELEMENT" Value="Follow_up"/>
         <ItemData ItemOID="SE.SESTDTC" Value="2013-02-18"/>
         <ItemData ItemOID="SE.SEENDTC" Value="2013-02-18"/>
      </ItemGroupData>
      <ItemGroupData data:ItemGroupDataSeq="6" ItemGroupOID="SE">
         <ItemData ItemOID="SE.STUDYID" Value="CDISCPILOT01"/>
         <ItemData ItemOID="SE.DOMAIN" Value="SE"/>
         <ItemData ItemOID="SE.USUBJID" Value="01-701-1028"/>
         <ItemData ItemOID="SE.SESEQ" Value="1"/>
         <ItemData ItemOID="SE.ETCD" Value="SCRN"/>
         <ItemData ItemOID="SE.ELEMENT" Value="Screen"/>
         <ItemData ItemOID="SE.SESTDTC" Value="2013-07-11"/>
         <ItemData ItemOID="SE.SEENDTC" Value="2013-07-19"/>
      </ItemGroupData>
      <ItemGroupData data:ItemGroupDataSeq="7" ItemGroupOID="SE">
         <ItemData ItemOID="SE.STUDYID" Value="CDISCPILOT01"/>
         <ItemData ItemOID="SE.DOMAIN" Value="SE"/>
         <ItemData ItemOID="SE.USUBJID" Value="01-701-1028"/>
         <ItemData ItemOID="SE.SESEQ" Value="3"/>
         <ItemData ItemOID="SE.ETCD" Value="HIS"/>
         <ItemData ItemOID="SE.ELEMENT" Value="High_Start"/>
         <ItemData ItemOID="SE.SESTDTC" Value="2013-07-19"/>
         <ItemData ItemOID="SE.SEENDTC" Value="2013-08-01"/>
      </ItemGroupData>
      <ItemGroupData data:ItemGroupDataSeq="8" ItemGroupOID="SE">
         <ItemData ItemOID="SE.STUDYID" Value="CDISCPILOT01"/>
         <ItemData ItemOID="SE.DOMAIN" Value="SE"/>
         <ItemData ItemOID="SE.USUBJID" Value="01-701-1028"/>
         <ItemData ItemOID="SE.SESEQ" Value="4"/>
         <ItemData ItemOID="SE.ETCD" Value="HIM"/>
         <ItemData ItemOID="SE.ELEMENT" Value="High_Middle"/>
         <ItemData ItemOID="SE.SESTDTC" Value="2013-08-01"/>
         <ItemData ItemOID="SE.SEENDTC" Value="2014-01-06"/>
      </ItemGroupData>
      <ItemGroupData data:ItemGroupDataSeq="9" ItemGroupOID="SE">
         <ItemData ItemOID="SE.STUDYID" Value="CDISCPILOT01"/>
         <ItemData ItemOID="SE.DOMAIN" Value="SE"/>
         <ItemData ItemOID="SE.USUBJID" Value="01-701-1028"/>
         <ItemData ItemOID="SE.SESEQ" Value="5"/>
         <ItemData ItemOID="SE.ETCD" Value="HIE"/>
         <ItemData ItemOID="SE.ELEMENT" Value="High_End"/>
         <ItemData ItemOID="SE.SESTDTC" Value="2014-01-06"/>
         <ItemData ItemOID="SE.SEENDTC" Value="2014-01-14"/>
      </ItemGroupData>
      <ItemGroupData data:ItemGroupDataSeq="10" ItemGroupOID="SE">
         <ItemData ItemOID="SE.STUDYID" Value="CDISCPILOT01"/>
         <ItemData ItemOID="SE.DOMAIN" Value="SE"/>
         <ItemData ItemOID="SE.USUBJID" Value="01-701-1033"/>
         <ItemData ItemOID="SE.SESEQ" Value="1"/>
         <ItemData ItemOID="SE.ETCD" Value="SCRN"/>
         <ItemData ItemOID="SE.ELEMENT" Value="Screen"/>
         <ItemData ItemOID="SE.SESTDTC" Value="2014-03-10"/>
         <ItemData ItemOID="SE.SEENDTC" Value="2014-03-18"/>
      </ItemGroupData>
      <ItemGroupData data:ItemGroupDataSeq="11" ItemGroupOID="SE">
         <ItemData ItemOID="SE.STUDYID" Value="CDISCPILOT01"/>
         <ItemData ItemOID="SE.DOMAIN" Value="SE"/>
         <ItemData ItemOID="SE.USUBJID" Value="01-701-1033"/>
         <ItemData ItemOID="SE.SESEQ" Value="4"/>
         <ItemData ItemOID="SE.ETCD" Value="LO"/>
         <ItemData ItemOID="SE.ELEMENT" Value="Low"/>
         <ItemData ItemOID="SE.SESTDTC" Value="2014-03-18"/>
         <ItemData ItemOID="SE.SEENDTC" Value="2014-04-14"/>
      </ItemGroupData>
      <ItemGroupData data:ItemGroupDataSeq="12" ItemGroupOID="SE">
         <ItemData ItemOID="SE.STUDYID" Value="CDISCPILOT01"/>
         <ItemData ItemOID="SE.DOMAIN" Value="SE"/>
         <ItemData ItemOID="SE.USUBJID" Value="01-701-1033"/>
         <ItemData ItemOID="SE.SESEQ" Value="6"/>
         <ItemData ItemOID="SE.ETCD" Value="FOLO"/>
         <ItemData ItemOID="SE.ELEMENT" Value="Follow_up"/>
         <ItemData ItemOID="SE.SESTDTC" Value="2014-04-14"/>
         <ItemData ItemOID="SE.SEENDTC" Value="2014-09-15"/>
      </ItemGroupData>
      <ItemGroupData data:ItemGroupDataSeq="13" ItemGroupOID="SE">
         <ItemData ItemOID="SE.STUDYID" Value="CDISCPILOT01"/>
         <ItemData ItemOID="SE.DOMAIN" Value="SE"/>
         <ItemData ItemOID="SE.USUBJID" Value="01-701-1034"/>
         <ItemData ItemOID="SE.SESEQ" Value="1"/>
         <ItemData ItemOID="SE.ETCD" Value="SCRN"/>
         <ItemData ItemOID="SE.ELEMENT" Value="Screen"/>
         <ItemData ItemOID="SE.SESTDTC" Value="2014-06-24"/>
         <ItemData ItemOID="SE.SEENDTC" Value="2014-07-01"/>
      </ItemGroupData>
      <ItemGroupData data:ItemGroupDataSeq="14" ItemGroupOID="SE">
         <ItemData ItemOID="SE.STUDYID" Value="CDISCPILOT01"/>
         <ItemData ItemOID="SE.DOMAIN" Value="SE"/>
         <ItemData ItemOID="SE.USUBJID" Value="01-701-1034"/>
         <ItemData ItemOID="SE.SESEQ" Value="3"/>
         <ItemData ItemOID="SE.ETCD" Value="HIS"/>
         <ItemData ItemOID="SE.ELEMENT" Value="High_Start"/>
         <ItemData ItemOID="SE.SESTDTC" Value="2014-07-01"/>
         <ItemData ItemOID="SE.SEENDTC" Value="2014-07-15"/>
      </ItemGroupData>
      <ItemGroupData data:ItemGroupDataSeq="15" ItemGroupOID="SE">
         <ItemData ItemOID="SE.STUDYID" Value="CDISCPILOT01"/>
         <ItemData ItemOID="SE.DOMAIN" Value="SE"/>
         <ItemData ItemOID="SE.USUBJID" Value="01-701-1034"/>
         <ItemData ItemOID="SE.SESEQ" Value="4"/>
         <ItemData ItemOID="SE.ETCD" Value="HIM"/>
         <ItemData ItemOID="SE.ELEMENT" Value="High_Middle"/>
         <ItemData ItemOID="SE.SESTDTC" Value="2014-07-15"/>
         <ItemData ItemOID="SE.SEENDTC" Value="2014-12-17"/>
      </ItemGroupData>
      <ItemGroupData data:ItemGroupDataSeq="16" ItemGroupOID="SE">
         <ItemData ItemOID="SE.STUDYID" Value="CDISCPILOT01"/>
         <ItemData ItemOID="SE.DOMAIN" Value="SE"/>
         <ItemData ItemOID="SE.USUBJID" Value="01-701-1034"/>
         <ItemData ItemOID="SE.SESEQ" Value="5"/>
         <ItemData ItemOID="SE.ETCD" Value="HIE"/>
         <ItemData ItemOID="SE.ELEMENT" Value="High_End"/>
         <ItemData ItemOID="SE.SESTDTC" Value="2014-12-17"/>
         <ItemData ItemOID="SE.SEENDTC" Value="2014-12-30"/>
      </ItemGroupData>
      <ItemGroupData data:ItemGroupDataSeq="17" ItemGroupOID="SE">
         <ItemData ItemOID="SE.STUDYID" Value="CDISCPILOT01"/>
         <ItemData ItemOID="SE.DOMAIN" Value="SE"/>
         <ItemData ItemOID="SE.USUBJID" Value="01-701-1047"/>
         <ItemData ItemOID="SE.SESEQ" Value="1"/>
         <ItemData ItemOID="SE.ETCD" Value="SCRN"/>
         <ItemData ItemOID="SE.ELEMENT" Value="Screen"/>
         <ItemData ItemOID="SE.SESTDTC" Value="2013-01-22"/>
         <ItemData ItemOID="SE.SEENDTC" Value="2013-02-12"/>
      </ItemGroupData>
      <ItemGroupData data:ItemGroupDataSeq="18" ItemGroupOID="SE">
         <ItemData ItemOID="SE.STUDYID" Value="CDISCPILOT01"/>
         <ItemData ItemOID="SE.DOMAIN" Value="SE"/>
         <ItemData ItemOID="SE.USUBJID" Value="01-701-1047"/>
         <ItemData ItemOID="SE.SESEQ" Value="4"/>
         <ItemData ItemOID="SE.ETCD" Value="PBO"/>
         <ItemData ItemOID="SE.ELEMENT" Value="Placebo"/>
         <ItemData ItemOID="SE.SESTDTC" Value="2013-02-12"/>
         <ItemData ItemOID="SE.SEENDTC" Value="2013-04-07"/>
      </ItemGroupData>
      <ItemGroupData data:ItemGroupDataSeq="19" ItemGroupOID="SE">
         <ItemData ItemOID="SE.STUDYID" Value="CDISCPILOT01"/>
         <ItemData ItemOID="SE.DOMAIN" Value="SE"/>
         <ItemData ItemOID="SE.USUBJID" Value="01-701-1047"/>
         <ItemData ItemOID="SE.SESEQ" Value="6"/>
         <ItemData ItemOID="SE.ETCD" Value="FOLO"/>
         <ItemData ItemOID="SE.ELEMENT" Value="Follow_up"/>
         <ItemData ItemOID="SE.SESTDTC" Value="2013-04-07"/>
         <ItemData ItemOID="SE.SEENDTC" Value="2013-07-28"/>
      </ItemGroupData>
      <ItemGroupData data:ItemGroupDataSeq="20" ItemGroupOID="SE">
         <ItemData ItemOID="SE.STUDYID" Value="CDISCPILOT01"/>
         <ItemData ItemOID="SE.DOMAIN" Value="SE"/>
         <ItemData ItemOID="SE.USUBJID" Value="01-701-1057"/>
         <ItemData ItemOID="SE.SESEQ" Value="1"/>
         <ItemData ItemOID="SE.ETCD" Value="SCRN"/>
         <ItemData ItemOID="SE.ELEMENT" Value="Screen"/>
         <ItemData ItemOID="SE.SESTDTC" Value="2013-12-20"/>
         <ItemData ItemOID="SE.SEENDTC" Value="2013-12-27"/>
      </ItemGroupData>
      <ItemGroupData data:ItemGroupDataSeq="21" ItemGroupOID="SE">
         <ItemData ItemOID="SE.STUDYID" Value="CDISCPILOT01"/>
         <ItemData ItemOID="SE.DOMAIN" Value="SE"/>
         <ItemData ItemOID="SE.USUBJID" Value="01-701-1097"/>
         <ItemData ItemOID="SE.SESEQ" Value="1"/>
         <ItemData ItemOID="SE.ETCD" Value="SCRN"/>
         <ItemData ItemOID="SE.ELEMENT" Value="Screen"/>
         <ItemData ItemOID="SE.SESTDTC" Value="2013-12-23"/>
         <ItemData ItemOID="SE.SEENDTC" Value="2014-01-01"/>
      </ItemGroupData>
      <ItemGroupData data:ItemGroupDataSeq="22" ItemGroupOID="SE">
         <ItemData ItemOID="SE.STUDYID" Value="CDISCPILOT01"/>
         <ItemData ItemOID="SE.DOMAIN" Value="SE"/>
         <ItemData ItemOID="SE.USUBJID" Value="01-701-1097"/>
         <ItemData ItemOID="SE.SESEQ" Value="4"/>
         <ItemData ItemOID="SE.ETCD" Value="LO"/>
         <ItemData ItemOID="SE.ELEMENT" Value="Low"/>
         <ItemData ItemOID="SE.SESTDTC" Value="2014-01-01"/>
         <ItemData ItemOID="SE.SEENDTC" Value="2014-07-09"/>
      </ItemGroupData>
      <ItemGroupData data:ItemGroupDataSeq="23" ItemGroupOID="SE">
         <ItemData ItemOID="SE.STUDYID" Value="CDISCPILOT01"/>
         <ItemData ItemOID="SE.DOMAIN" Value="SE"/>
         <ItemData ItemOID="SE.USUBJID" Value="01-701-1111"/>
         <ItemData ItemOID="SE.SESEQ" Value="1"/>
         <ItemData ItemOID="SE.ETCD" Value="SCRN"/>
         <ItemData ItemOID="SE.ELEMENT" Value="Screen"/>
         <ItemData ItemOID="SE.SESTDTC" Value="2012-08-25"/>
         <ItemData ItemOID="SE.SEENDTC" Value="2012-09-07"/>
      </ItemGroupData>
      <ItemGroupData data:ItemGroupDataSeq="24" ItemGroupOID="SE">
         <ItemData ItemOID="SE.STUDYID" Value="CDISCPILOT01"/>
         <ItemData ItemOID="SE.DOMAIN" Value="SE"/>
         <ItemData ItemOID="SE.USUBJID" Value="01-701-1111"/>
         <ItemData ItemOID="SE.SESEQ" Value="4"/>
         <ItemData ItemOID="SE.ETCD" Value="LO"/>
         <ItemData ItemOID="SE.ELEMENT" Value="Low"/>
         <ItemData ItemOID="SE.SESTDTC" Value="2012-09-07"/>
         <ItemData ItemOID="SE.SEENDTC" Value="2012-09-17"/>
      </ItemGroupData>
      <ItemGroupData data:ItemGroupDataSeq="25" ItemGroupOID="SE">
         <ItemData ItemOID="SE.STUDYID" Value="CDISCPILOT01"/>
         <ItemData ItemOID="SE.DOMAIN" Value="SE"/>
         <ItemData ItemOID="SE.USUBJID" Value="01-701-1111"/>
         <ItemData ItemOID="SE.SESEQ" Value="6"/>
         <ItemData ItemOID="SE.ETCD" Value="FOLO"/>
         <ItemData ItemOID="SE.ELEMENT" Value="Follow_up"/>
         <ItemData ItemOID="SE.SESTDTC" Value="2012-09-17"/>
         <ItemData ItemOID="SE.SEENDTC" Value="2013-02-22"/>
      </ItemGroupData>
      <ItemGroupData data:ItemGroupDataSeq="26" ItemGroupOID="SE">
         <ItemData ItemOID="SE.STUDYID" Value="CDISCPILOT01"/>
         <ItemData ItemOID="SE.DOMAIN" Value="SE"/>
         <ItemData ItemOID="SE.USUBJID" Value="01-701-1115"/>
         <ItemData ItemOID="SE.SESEQ" Value="1"/>
         <ItemData ItemOID="SE.ETCD" Value="SCRN"/>
         <ItemData ItemOID="SE.ELEMENT" Value="Screen"/>
         <ItemData ItemOID="SE.SESTDTC" Value="2012-11-23"/>
         <ItemData ItemOID="SE.SEENDTC" Value="2012-11-30"/>
      </ItemGroupData>
      <ItemGroupData data:ItemGroupDataSeq="27" ItemGroupOID="SE">
         <ItemData ItemOID="SE.STUDYID" Value="CDISCPILOT01"/>
         <ItemData ItemOID="SE.DOMAIN" Value="SE"/>
         <ItemData ItemOID="SE.USUBJID" Value="01-701-1115"/>
         <ItemData ItemOID="SE.SESEQ" Value="4"/>
         <ItemData ItemOID="SE.ETCD" Value="LO"/>
         <ItemData ItemOID="SE.ELEMENT" Value="Low"/>
         <ItemData ItemOID="SE.SESTDTC" Value="2012-11-30"/>
         <ItemData ItemOID="SE.SEENDTC" Value="2013-01-23"/>
      </ItemGroupData>
      <ItemGroupData data:ItemGroupDataSeq="28" ItemGroupOID="SE">
         <ItemData ItemOID="SE.STUDYID" Value="CDISCPILOT01"/>
         <ItemData ItemOID="SE.DOMAIN" Value="SE"/>
         <ItemData ItemOID="SE.USUBJID" Value="01-701-1115"/>
         <ItemData ItemOID="SE.SESEQ" Value="6"/>
         <ItemData ItemOID="SE.ETCD" Value="FOLO"/>
         <ItemData ItemOID="SE.ELEMENT" Value="Follow_up"/>
         <ItemData ItemOID="SE.SESTDTC" Value="2013-01-23"/>
         <ItemData ItemOID="SE.SEENDTC" Value="2013-05-20"/>
      </ItemGroupData>
      <ItemGroupData data:ItemGroupDataSeq="29" ItemGroupOID="SE">
         <ItemData ItemOID="SE.STUDYID" Value="CDISCPILOT01"/>
         <ItemData ItemOID="SE.DOMAIN" Value="SE"/>
         <ItemData ItemOID="SE.USUBJID" Value="01-701-1118"/>
         <ItemData ItemOID="SE.SESEQ" Value="1"/>
         <ItemData ItemOID="SE.ETCD" Value="SCRN"/>
         <ItemData ItemOID="SE.ELEMENT" Value="Screen"/>
         <ItemData ItemOID="SE.SESTDTC" Value="2014-02-27"/>
         <ItemData ItemOID="SE.SEENDTC" Value="2014-03-12"/>
      </ItemGroupData>
      <ItemGroupData data:ItemGroupDataSeq="30" ItemGroupOID="SE">
         <ItemData ItemOID="SE.STUDYID" Value="CDISCPILOT01"/>
         <ItemData ItemOID="SE.DOMAIN" Value="SE"/>
         <ItemData ItemOID="SE.USUBJID" Value="01-701-1118"/>
         <ItemData ItemOID="SE.SESEQ" Value="4"/>
         <ItemData ItemOID="SE.ETCD" Value="PBO"/>
         <ItemData ItemOID="SE.ELEMENT" Value="Placebo"/>
         <ItemData ItemOID="SE.SESTDTC" Value="2014-03-12"/>
         <ItemData ItemOID="SE.SEENDTC" Value="2014-09-09"/>
      </ItemGroupData>
      <ItemGroupData data:ItemGroupDataSeq="31" ItemGroupOID="SE">
         <ItemData ItemOID="SE.STUDYID" Value="CDISCPILOT01"/>
         <ItemData ItemOID="SE.DOMAIN" Value="SE"/>
         <ItemData ItemOID="SE.USUBJID" Value="01-701-1130"/>
         <ItemData ItemOID="SE.SESEQ" Value="1"/>
         <ItemData ItemOID="SE.ETCD" Value="SCRN"/>
         <ItemData ItemOID="SE.ELEMENT" Value="Screen"/>
         <ItemData ItemOID="SE.SESTDTC" Value="2014-02-09"/>
         <ItemData ItemOID="SE.SEENDTC" Value="2014-02-15"/>
      </ItemGroupData>
      <ItemGroupData data:ItemGroupDataSeq="32" ItemGroupOID="SE">
         <ItemData ItemOID="SE.STUDYID" Value="CDISCPILOT01"/>
         <ItemData ItemOID="SE.DOMAIN" Value="SE"/>
         <ItemData ItemOID="SE.USUBJID" Value="01-701-1130"/>
         <ItemData ItemOID="SE.SESEQ" Value="4"/>
         <ItemData ItemOID="SE.ETCD" Value="PBO"/>
         <ItemData ItemOID="SE.ELEMENT" Value="Placebo"/>
         <ItemData ItemOID="SE.SESTDTC" Value="2014-02-15"/>
         <ItemData ItemOID="SE.SEENDTC" Value="2014-08-16"/>
      </ItemGroupData>
      <ItemGroupData data:ItemGroupDataSeq="33" ItemGroupOID="SE">
         <ItemData ItemOID="SE.STUDYID" Value="CDISCPILOT01"/>
         <ItemData ItemOID="SE.DOMAIN" Value="SE"/>
         <ItemData ItemOID="SE.USUBJID" Value="01-701-1133"/>
         <ItemData ItemOID="SE.SESEQ" Value="1"/>
         <ItemData ItemOID="SE.ETCD" Value="SCRN"/>
         <ItemData ItemOID="SE.ELEMENT" Value="Screen"/>
         <ItemData ItemOID="SE.SESTDTC" Value="2012-10-23"/>
         <ItemData ItemOID="SE.SEENDTC" Value="2012-10-28"/>
      </ItemGroupData>
      <ItemGroupData data:ItemGroupDataSeq="34" ItemGroupOID="SE">
         <ItemData ItemOID="SE.STUDYID" Value="CDISCPILOT01"/>
         <ItemData ItemOID="SE.DOMAIN" Value="SE"/>
         <ItemData ItemOID="SE.USUBJID" Value="01-701-1133"/>
         <ItemData ItemOID="SE.SESEQ" Value="3"/>
         <ItemData ItemOID="SE.ETCD" Value="HIS"/>
         <ItemData ItemOID="SE.ELEMENT" Value="High_Start"/>
         <ItemData ItemOID="SE.SESTDTC" Value="2012-10-28"/>
         <ItemData ItemOID="SE.SEENDTC" Value="2012-11-12"/>
      </ItemGroupData>
      <ItemGroupData data:ItemGroupDataSeq="35" ItemGroupOID="SE">
         <ItemData ItemOID="SE.STUDYID" Value="CDISCPILOT01"/>
         <ItemData ItemOID="SE.DOMAIN" Value="SE"/>
         <ItemData ItemOID="SE.USUBJID" Value="01-701-1133"/>
         <ItemData ItemOID="SE.SESEQ" Value="4"/>
         <ItemData ItemOID="SE.ETCD" Value="HIM"/>
         <ItemData ItemOID="SE.ELEMENT" Value="High_Middle"/>
         <ItemData ItemOID="SE.SESTDTC" Value="2012-11-12"/>
         <ItemData ItemOID="SE.SEENDTC" Value="2013-04-18"/>
      </ItemGroupData>
      <ItemGroupData data:ItemGroupDataSeq="36" ItemGroupOID="SE">
         <ItemData ItemOID="SE.STUDYID" Value="CDISCPILOT01"/>
         <ItemData ItemOID="SE.DOMAIN" Value="SE"/>
         <ItemData ItemOID="SE.USUBJID" Value="01-701-1133"/>
         <ItemData ItemOID="SE.SESEQ" Value="5"/>
         <ItemData ItemOID="SE.ETCD" Value="HIE"/>
         <ItemData ItemOID="SE.ELEMENT" Value="High_End"/>
         <ItemData ItemOID="SE.SESTDTC" Value="2013-04-18"/>
         <ItemData ItemOID="SE.SEENDTC" Value="2013-04-29"/>
      </ItemGroupData>
      <ItemGroupData data:ItemGroupDataSeq="37" ItemGroupOID="SE">
         <ItemData ItemOID="SE.STUDYID" Value="CDISCPILOT01"/>
         <ItemData ItemOID="SE.DOMAIN" Value="SE"/>
         <ItemData ItemOID="SE.USUBJID" Value="01-701-1145"/>
         <ItemData ItemOID="SE.SESEQ" Value="1"/>
         <ItemData ItemOID="SE.ETCD" Value="SCRN"/>
         <ItemData ItemOID="SE.ELEMENT" Value="Screen"/>
         <ItemData ItemOID="SE.SESTDTC" Value="2013-09-05"/>
         <ItemData ItemOID="SE.SEENDTC" Value="2013-09-19"/>
      </ItemGroupData>
      <ItemGroupData data:ItemGroupDataSeq="38" ItemGroupOID="SE">
         <ItemData ItemOID="SE.STUDYID" Value="CDISCPILOT01"/>
         <ItemData ItemOID="SE.DOMAIN" Value="SE"/>
         <ItemData ItemOID="SE.USUBJID" Value="01-701-1146"/>
         <ItemData ItemOID="SE.SESEQ" Value="1"/>
         <ItemData ItemOID="SE.ETCD" Value="SCRN"/>
         <ItemData ItemOID="SE.ELEMENT" Value="Screen"/>
         <ItemData ItemOID="SE.SESTDTC" Value="2013-05-07"/>
         <ItemData ItemOID="SE.SEENDTC" Value="2013-05-20"/>
      </ItemGroupData>
      <ItemGroupData data:ItemGroupDataSeq="39" ItemGroupOID="SE">
         <ItemData ItemOID="SE.STUDYID" Value="CDISCPILOT01"/>
         <ItemData ItemOID="SE.DOMAIN" Value="SE"/>
         <ItemData ItemOID="SE.USUBJID" Value="01-701-1146"/>
         <ItemData ItemOID="SE.SESEQ" Value="3"/>
         <ItemData ItemOID="SE.ETCD" Value="HIS"/>
         <ItemData ItemOID="SE.ELEMENT" Value="High_Start"/>
         <ItemData ItemOID="SE.SESTDTC" Value="2013-05-20"/>
         <ItemData ItemOID="SE.SEENDTC" Value="2013-06-03"/>
      </ItemGroupData>
      <ItemGroupData data:ItemGroupDataSeq="40" ItemGroupOID="SE">
         <ItemData ItemOID="SE.STUDYID" Value="CDISCPILOT01"/>
         <ItemData ItemOID="SE.DOMAIN" Value="SE"/>
         <ItemData ItemOID="SE.USUBJID" Value="01-701-1146"/>
         <ItemData ItemOID="SE.SESEQ" Value="4"/>
         <ItemData ItemOID="SE.ETCD" Value="HIM"/>
         <ItemData ItemOID="SE.ELEMENT" Value="High_Middle"/>
         <ItemData ItemOID="SE.SESTDTC" Value="2013-06-03"/>
         <ItemData ItemOID="SE.SEENDTC" Value="2013-06-30"/>
      </ItemGroupData>
      <ItemGroupData data:ItemGroupDataSeq="41" ItemGroupOID="SE">
         <ItemData ItemOID="SE.STUDYID" Value="CDISCPILOT01"/>
         <ItemData ItemOID="SE.DOMAIN" Value="SE"/>
         <ItemData ItemOID="SE.USUBJID" Value="01-701-1146"/>
         <ItemData ItemOID="SE.SESEQ" Value="6"/>
         <ItemData ItemOID="SE.ETCD" Value="FOLO"/>
         <ItemData ItemOID="SE.ELEMENT" Value="Follow_up"/>
         <ItemData ItemOID="SE.SESTDTC" Value="2013-06-30"/>
         <ItemData ItemOID="SE.SEENDTC" Value="2013-07-15"/>
      </ItemGroupData>
      <ItemGroupData data:ItemGroupDataSeq="42" ItemGroupOID="SE">
         <ItemData ItemOID="SE.STUDYID" Value="CDISCPILOT01"/>
         <ItemData ItemOID="SE.DOMAIN" Value="SE"/>
         <ItemData ItemOID="SE.USUBJID" Value="01-701-1148"/>
         <ItemData ItemOID="SE.SESEQ" Value="1"/>
         <ItemData ItemOID="SE.ETCD" Value="SCRN"/>
         <ItemData ItemOID="SE.ELEMENT" Value="Screen"/>
         <ItemData ItemOID="SE.SESTDTC" Value="2013-08-14"/>
         <ItemData ItemOID="SE.SEENDTC" Value="2013-08-23"/>
      </ItemGroupData>
      <ItemGroupData data:ItemGroupDataSeq="43" ItemGroupOID="SE">
         <ItemData ItemOID="SE.STUDYID" Value="CDISCPILOT01"/>
         <ItemData ItemOID="SE.DOMAIN" Value="SE"/>
         <ItemData ItemOID="SE.USUBJID" Value="01-701-1148"/>
         <ItemData ItemOID="SE.SESEQ" Value="3"/>
         <ItemData ItemOID="SE.ETCD" Value="HIS"/>
         <ItemData ItemOID="SE.ELEMENT" Value="High_Start"/>
         <ItemData ItemOID="SE.SESTDTC" Value="2013-08-23"/>
         <ItemData ItemOID="SE.SEENDTC" Value="2013-09-05"/>
      </ItemGroupData>
      <ItemGroupData data:ItemGroupDataSeq="44" ItemGroupOID="SE">
         <ItemData ItemOID="SE.STUDYID" Value="CDISCPILOT01"/>
         <ItemData ItemOID="SE.DOMAIN" Value="SE"/>
         <ItemData ItemOID="SE.USUBJID" Value="01-701-1148"/>
         <ItemData ItemOID="SE.SESEQ" Value="4"/>
         <ItemData ItemOID="SE.ETCD" Value="HIM"/>
         <ItemData ItemOID="SE.ELEMENT" Value="High_Middle"/>
         <ItemData ItemOID="SE.SESTDTC" Value="2013-09-05"/>
         <ItemData ItemOID="SE.SEENDTC" Value="2014-02-08"/>
      </ItemGroupData>
      <ItemGroupData data:ItemGroupDataSeq="45" ItemGroupOID="SE">
         <ItemData ItemOID="SE.STUDYID" Value="CDISCPILOT01"/>
         <ItemData ItemOID="SE.DOMAIN" Value="SE"/>
         <ItemData ItemOID="SE.USUBJID" Value="01-701-1148"/>
         <ItemData ItemOID="SE.SESEQ" Value="5"/>
         <ItemData ItemOID="SE.ETCD" Value="HIE"/>
         <ItemData ItemOID="SE.ELEMENT" Value="High_End"/>
         <ItemData ItemOID="SE.SESTDTC" Value="2014-02-08"/>
         <ItemData ItemOID="SE.SEENDTC" Value="2014-02-20"/>
      </ItemGroupData>
      <ItemGroupData data:ItemGroupDataSeq="46" ItemGroupOID="SE">
         <ItemData ItemOID="SE.STUDYID" Value="CDISCPILOT01"/>
         <ItemData ItemOID="SE.DOMAIN" Value="SE"/>
         <ItemData ItemOID="SE.USUBJID" Value="01-701-1153"/>
         <ItemData ItemOID="SE.SESEQ" Value="1"/>
         <ItemData ItemOID="SE.ETCD" Value="SCRN"/>
         <ItemData ItemOID="SE.ELEMENT" Value="Screen"/>
         <ItemData ItemOID="SE.SESTDTC" Value="2013-09-06"/>
         <ItemData ItemOID="SE.SEENDTC" Value="2013-09-23"/>
      </ItemGroupData>
      <ItemGroupData data:ItemGroupDataSeq="47" ItemGroupOID="SE">
         <ItemData ItemOID="SE.STUDYID" Value="CDISCPILOT01"/>
         <ItemData ItemOID="SE.DOMAIN" Value="SE"/>
         <ItemData ItemOID="SE.USUBJID" Value="01-701-1153"/>
         <ItemData ItemOID="SE.SESEQ" Value="4"/>
         <ItemData ItemOID="SE.ETCD" Value="PBO"/>
         <ItemData ItemOID="SE.ELEMENT" Value="Placebo"/>
         <ItemData ItemOID="SE.SESTDTC" Value="2013-09-23"/>
         <ItemData ItemOID="SE.SEENDTC" Value="2014-04-01"/>
      </ItemGroupData>
      <ItemGroupData data:ItemGroupDataSeq="48" ItemGroupOID="SE">
         <ItemData ItemOID="SE.STUDYID" Value="CDISCPILOT01"/>
         <ItemData ItemOID="SE.DOMAIN" Value="SE"/>
         <ItemData ItemOID="SE.USUBJID" Value="01-701-1162"/>
         <ItemData ItemOID="SE.SESEQ" Value="1"/>
         <ItemData ItemOID="SE.ETCD" Value="SCRN"/>
         <ItemData ItemOID="SE.ELEMENT" Value="Screen"/>
         <ItemData ItemOID="SE.SESTDTC" Value="2013-04-08"/>
         <ItemData ItemOID="SE.SEENDTC" Value="2013-04-18"/>
      </ItemGroupData>
      <ItemGroupData data:ItemGroupDataSeq="49" ItemGroupOID="SE">
         <ItemData ItemOID="SE.STUDYID" Value="CDISCPILOT01"/>
         <ItemData ItemOID="SE.DOMAIN" Value="SE"/>
         <ItemData ItemOID="SE.USUBJID" Value="01-701-1176"/>
         <ItemData ItemOID="SE.SESEQ" Value="1"/>
         <ItemData ItemOID="SE.ETCD" Value="SCRN"/>
         <ItemData ItemOID="SE.ELEMENT" Value="Screen"/>
         <ItemData ItemOID="SE.SESTDTC" Value="2012-09-30"/>
         <ItemData ItemOID="SE.SEENDTC" Value="2012-09-30"/>
      </ItemGroupData>
      <ItemGroupData data:ItemGroupDataSeq="50" ItemGroupOID="SE">
         <ItemData ItemOID="SE.STUDYID" Value="CDISCPILOT01"/>
         <ItemData ItemOID="SE.DOMAIN" Value="SE"/>
         <ItemData ItemOID="SE.USUBJID" Value="01-701-1180"/>
         <ItemData ItemOID="SE.SESEQ" Value="1"/>
         <ItemData ItemOID="SE.ETCD" Value="SCRN"/>
         <ItemData ItemOID="SE.ELEMENT" Value="Screen"/>
         <ItemData ItemOID="SE.SESTDTC" Value="2013-01-28"/>
         <ItemData ItemOID="SE.SEENDTC" Value="2013-02-12"/>
      </ItemGroupData>
      <ItemGroupData data:ItemGroupDataSeq="51" ItemGroupOID="SE">
         <ItemData ItemOID="SE.STUDYID" Value="CDISCPILOT01"/>
         <ItemData ItemOID="SE.DOMAIN" Value="SE"/>
         <ItemData ItemOID="SE.USUBJID" Value="01-701-1180"/>
         <ItemData ItemOID="SE.SESEQ" Value="3"/>
         <ItemData ItemOID="SE.ETCD" Value="HIS"/>
         <ItemData ItemOID="SE.ELEMENT" Value="High_Start"/>
         <ItemData ItemOID="SE.SESTDTC" Value="2013-02-12"/>
         <ItemData ItemOID="SE.SEENDTC" Value="2013-02-25"/>
      </ItemGroupData>
      <ItemGroupData data:ItemGroupDataSeq="52" ItemGroupOID="SE">
         <ItemData ItemOID="SE.STUDYID" Value="CDISCPILOT01"/>
         <ItemData ItemOID="SE.DOMAIN" Value="SE"/>
         <ItemData ItemOID="SE.USUBJID" Value="01-701-1180"/>
         <ItemData ItemOID="SE.SESEQ" Value="4"/>
         <ItemData ItemOID="SE.ETCD" Value="HIM"/>
         <ItemData ItemOID="SE.ELEMENT" Value="High_Middle"/>
         <ItemData ItemOID="SE.SESTDTC" Value="2013-02-25"/>
         <ItemData ItemOID="SE.SEENDTC" Value="2013-03-23"/>
      </ItemGroupData>
      <ItemGroupData data:ItemGroupDataSeq="53" ItemGroupOID="SE">
         <ItemData ItemOID="SE.STUDYID" Value="CDISCPILOT01"/>
         <ItemData ItemOID="SE.DOMAIN" Value="SE"/>
         <ItemData ItemOID="SE.USUBJID" Value="01-701-1180"/>
         <ItemData ItemOID="SE.SESEQ" Value="6"/>
         <ItemData ItemOID="SE.ETCD" Value="FOLO"/>
         <ItemData ItemOID="SE.ELEMENT" Value="Follow_up"/>
         <ItemData ItemOID="SE.SESTDTC" Value="2013-03-23"/>
         <ItemData ItemOID="SE.SEENDTC" Value="2013-04-07"/>
      </ItemGroupData>
      <ItemGroupData data:ItemGroupDataSeq="54" ItemGroupOID="SE">
         <ItemData ItemOID="SE.STUDYID" Value="CDISCPILOT01"/>
         <ItemData ItemOID="SE.DOMAIN" Value="SE"/>
         <ItemData ItemOID="SE.USUBJID" Value="01-701-1181"/>
         <ItemData ItemOID="SE.SESEQ" Value="1"/>
         <ItemData ItemOID="SE.ETCD" Value="SCRN"/>
         <ItemData ItemOID="SE.ELEMENT" Value="Screen"/>
         <ItemData ItemOID="SE.SESTDTC" Value="2013-11-26"/>
         <ItemData ItemOID="SE.SEENDTC" Value="2013-12-05"/>
      </ItemGroupData>
      <ItemGroupData data:ItemGroupDataSeq="55" ItemGroupOID="SE">
         <ItemData ItemOID="SE.STUDYID" Value="CDISCPILOT01"/>
         <ItemData ItemOID="SE.DOMAIN" Value="SE"/>
         <ItemData ItemOID="SE.USUBJID" Value="01-701-1181"/>
         <ItemData ItemOID="SE.SESEQ" Value="3"/>
         <ItemData ItemOID="SE.ETCD" Value="HIS"/>
         <ItemData ItemOID="SE.ELEMENT" Value="High_Start"/>
         <ItemData ItemOID="SE.SESTDTC" Value="2013-12-05"/>
         <ItemData ItemOID="SE.SEENDTC" Value="2013-12-12"/>
      </ItemGroupData>
      <ItemGroupData data:ItemGroupDataSeq="56" ItemGroupOID="SE">
         <ItemData ItemOID="SE.STUDYID" Value="CDISCPILOT01"/>
         <ItemData ItemOID="SE.DOMAIN" Value="SE"/>
         <ItemData ItemOID="SE.USUBJID" Value="01-701-1181"/>
         <ItemData ItemOID="SE.SESEQ" Value="6"/>
         <ItemData ItemOID="SE.ETCD" Value="FOLO"/>
         <ItemData ItemOID="SE.ELEMENT" Value="Follow_up"/>
         <ItemData ItemOID="SE.SESTDTC" Value="2013-12-12"/>
         <ItemData ItemOID="SE.SEENDTC" Value="2014-05-23"/>
      </ItemGroupData>
      <ItemGroupData data:ItemGroupDataSeq="57" ItemGroupOID="SE">
         <ItemData ItemOID="SE.STUDYID" Value="CDISCPILOT01"/>
         <ItemData ItemOID="SE.DOMAIN" Value="SE"/>
         <ItemData ItemOID="SE.USUBJID" Value="01-701-1188"/>
         <ItemData ItemOID="SE.SESEQ" Value="1"/>
         <ItemData ItemOID="SE.ETCD" Value="SCRN"/>
         <ItemData ItemOID="SE.ELEMENT" Value="Screen"/>
         <ItemData ItemOID="SE.SESTDTC" Value="2013-02-03"/>
         <ItemData ItemOID="SE.SEENDTC" Value="2013-02-15"/>
      </ItemGroupData>
      <ItemGroupData data:ItemGroupDataSeq="58" ItemGroupOID="SE">
         <ItemData ItemOID="SE.STUDYID" Value="CDISCPILOT01"/>
         <ItemData ItemOID="SE.DOMAIN" Value="SE"/>
         <ItemData ItemOID="SE.USUBJID" Value="01-701-1188"/>
         <ItemData ItemOID="SE.SESEQ" Value="4"/>
         <ItemData ItemOID="SE.ETCD" Value="LO"/>
         <ItemData ItemOID="SE.ELEMENT" Value="Low"/>
         <ItemData ItemOID="SE.SESTDTC" Value="2013-02-15"/>
         <ItemData ItemOID="SE.SEENDTC" Value="2013-03-25"/>
      </ItemGroupData>
      <ItemGroupData data:ItemGroupDataSeq="59" ItemGroupOID="SE">
         <ItemData ItemOID="SE.STUDYID" Value="CDISCPILOT01"/>
         <ItemData ItemOID="SE.DOMAIN" Value="SE"/>
         <ItemData ItemOID="SE.USUBJID" Value="01-701-1188"/>
         <ItemData ItemOID="SE.SESEQ" Value="6"/>
         <ItemData ItemOID="SE.ETCD" Value="FOLO"/>
         <ItemData ItemOID="SE.ELEMENT" Value="Follow_up"/>
         <ItemData ItemOID="SE.SESTDTC" Value="2013-03-25"/>
         <ItemData ItemOID="SE.SEENDTC" Value="2013-08-04"/>
      </ItemGroupData>
      <ItemGroupData data:ItemGroupDataSeq="60" ItemGroupOID="SE">
         <ItemData ItemOID="SE.STUDYID" Value="CDISCPILOT01"/>
         <ItemData ItemOID="SE.DOMAIN" Value="SE"/>
         <ItemData ItemOID="SE.USUBJID" Value="01-701-1192"/>
         <ItemData ItemOID="SE.SESEQ" Value="1"/>
         <ItemData ItemOID="SE.ETCD" Value="SCRN"/>
         <ItemData ItemOID="SE.ELEMENT" Value="Screen"/>
         <ItemData ItemOID="SE.SESTDTC" Value="2012-07-08"/>
         <ItemData ItemOID="SE.SEENDTC" Value="2012-07-22"/>
      </ItemGroupData>
      <ItemGroupData data:ItemGroupDataSeq="61" ItemGroupOID="SE">
         <ItemData ItemOID="SE.STUDYID" Value="CDISCPILOT01"/>
         <ItemData ItemOID="SE.DOMAIN" Value="SE"/>
         <ItemData ItemOID="SE.USUBJID" Value="01-701-1192"/>
         <ItemData ItemOID="SE.SESEQ" Value="4"/>
         <ItemData ItemOID="SE.ETCD" Value="LO"/>
         <ItemData ItemOID="SE.ELEMENT" Value="Low"/>
         <ItemData ItemOID="SE.SESTDTC" Value="2012-07-22"/>
         <ItemData ItemOID="SE.SEENDTC" Value="2013-01-20"/>
      </ItemGroupData>
      <ItemGroupData data:ItemGroupDataSeq="62" ItemGroupOID="SE">
         <ItemData ItemOID="SE.STUDYID" Value="CDISCPILOT01"/>
         <ItemData ItemOID="SE.DOMAIN" Value="SE"/>
         <ItemData ItemOID="SE.USUBJID" Value="01-701-1203"/>
         <ItemData ItemOID="SE.SESEQ" Value="1"/>
         <ItemData ItemOID="SE.ETCD" Value="SCRN"/>
         <ItemData ItemOID="SE.ELEMENT" Value="Screen"/>
         <ItemData ItemOID="SE.SESTDTC" Value="2013-01-25"/>
         <ItemData ItemOID="SE.SEENDTC" Value="2013-02-02"/>
      </ItemGroupData>
      <ItemGroupData data:ItemGroupDataSeq="63" ItemGroupOID="SE">
         <ItemData ItemOID="SE.STUDYID" Value="CDISCPILOT01"/>
         <ItemData ItemOID="SE.DOMAIN" Value="SE"/>
         <ItemData ItemOID="SE.USUBJID" Value="01-701-1203"/>
         <ItemData ItemOID="SE.SESEQ" Value="4"/>
         <ItemData ItemOID="SE.ETCD" Value="PBO"/>
         <ItemData ItemOID="SE.ELEMENT" Value="Placebo"/>
         <ItemData ItemOID="SE.SESTDTC" Value="2013-02-02"/>
         <ItemData ItemOID="SE.SEENDTC" Value="2013-08-03"/>
      </ItemGroupData>
      <ItemGroupData data:ItemGroupDataSeq="64" ItemGroupOID="SE">
         <ItemData ItemOID="SE.STUDYID" Value="CDISCPILOT01"/>
         <ItemData ItemOID="SE.DOMAIN" Value="SE"/>
         <ItemData ItemOID="SE.USUBJID" Value="01-701-1211"/>
         <ItemData ItemOID="SE.SESEQ" Value="1"/>
         <ItemData ItemOID="SE.ETCD" Value="SCRN"/>
         <ItemData ItemOID="SE.ELEMENT" Value="Screen"/>
         <ItemData ItemOID="SE.SESTDTC" Value="2012-10-30"/>
         <ItemData ItemOID="SE.SEENDTC" Value="2012-11-15"/>
      </ItemGroupData>
      <ItemGroupData data:ItemGroupDataSeq="65" ItemGroupOID="SE">
         <ItemData ItemOID="SE.STUDYID" Value="CDISCPILOT01"/>
         <ItemData ItemOID="SE.DOMAIN" Value="SE"/>
         <ItemData ItemOID="SE.USUBJID" Value="01-701-1211"/>
         <ItemData ItemOID="SE.SESEQ" Value="4"/>
         <ItemData ItemOID="SE.ETCD" Value="LO"/>
         <ItemData ItemOID="SE.ELEMENT" Value="Low"/>
         <ItemData ItemOID="SE.SESTDTC" Value="2012-11-15"/>
         <ItemData ItemOID="SE.SEENDTC" Value="2013-01-14"/>
      </ItemGroupData>
      <ItemGroupData data:ItemGroupDataSeq="66" ItemGroupOID="SE">
         <ItemData ItemOID="SE.STUDYID" Value="CDISCPILOT01"/>
         <ItemData ItemOID="SE.DOMAIN" Value="SE"/>
         <ItemData ItemOID="SE.USUBJID" Value="01-701-1234"/>
         <ItemData ItemOID="SE.SESEQ" Value="1"/>
         <ItemData ItemOID="SE.ETCD" Value="SCRN"/>
         <ItemData ItemOID="SE.ELEMENT" Value="Screen"/>
         <ItemData ItemOID="SE.SESTDTC" Value="2013-03-20"/>
         <ItemData ItemOID="SE.SEENDTC" Value="2013-03-30"/>
      </ItemGroupData>
      <ItemGroupData data:ItemGroupDataSeq="67" ItemGroupOID="SE">
         <ItemData ItemOID="SE.STUDYID" Value="CDISCPILOT01"/>
         <ItemData ItemOID="SE.DOMAIN" Value="SE"/>
         <ItemData ItemOID="SE.USUBJID" Value="01-701-1234"/>
         <ItemData ItemOID="SE.SESEQ" Value="4"/>
         <ItemData ItemOID="SE.ETCD" Value="PBO"/>
         <ItemData ItemOID="SE.ELEMENT" Value="Placebo"/>
         <ItemData ItemOID="SE.SESTDTC" Value="2013-03-30"/>
         <ItemData ItemOID="SE.SEENDTC" Value="2013-09-22"/>
      </ItemGroupData>
      <ItemGroupData data:ItemGroupDataSeq="68" ItemGroupOID="SE">
         <ItemData ItemOID="SE.STUDYID" Value="CDISCPILOT01"/>
         <ItemData ItemOID="SE.DOMAIN" Value="SE"/>
         <ItemData ItemOID="SE.USUBJID" Value="01-701-1239"/>
         <ItemData ItemOID="SE.SESEQ" Value="1"/>
         <ItemData ItemOID="SE.ETCD" Value="SCRN"/>
         <ItemData ItemOID="SE.ELEMENT" Value="Screen"/>
         <ItemData ItemOID="SE.SESTDTC" Value="2013-12-28"/>
         <ItemData ItemOID="SE.SEENDTC" Value="2014-01-11"/>
      </ItemGroupData>
      <ItemGroupData data:ItemGroupDataSeq="69" ItemGroupOID="SE">
         <ItemData ItemOID="SE.STUDYID" Value="CDISCPILOT01"/>
         <ItemData ItemOID="SE.DOMAIN" Value="SE"/>
         <ItemData ItemOID="SE.USUBJID" Value="01-701-1239"/>
         <ItemData ItemOID="SE.SESEQ" Value="3"/>
         <ItemData ItemOID="SE.ETCD" Value="HIS"/>
         <ItemData ItemOID="SE.ELEMENT" Value="High_Start"/>
         <ItemData ItemOID="SE.SESTDTC" Value="2014-01-11"/>
         <ItemData ItemOID="SE.SEENDTC" Value="2014-01-25"/>
      </ItemGroupData>
      <ItemGroupData data:ItemGroupDataSeq="70" ItemGroupOID="SE">
         <ItemData ItemOID="SE.STUDYID" Value="CDISCPILOT01"/>
         <ItemData ItemOID="SE.DOMAIN" Value="SE"/>
         <ItemData ItemOID="SE.USUBJID" Value="01-701-1239"/>
         <ItemData ItemOID="SE.SESEQ" Value="4"/>
         <ItemData ItemOID="SE.ETCD" Value="HIM"/>
         <ItemData ItemOID="SE.ELEMENT" Value="High_Middle"/>
         <ItemData ItemOID="SE.SESTDTC" Value="2014-01-25"/>
         <ItemData ItemOID="SE.SEENDTC" Value="2014-06-27"/>
      </ItemGroupData>
      <ItemGroupData data:ItemGroupDataSeq="71" ItemGroupOID="SE">
         <ItemData ItemOID="SE.STUDYID" Value="CDISCPILOT01"/>
         <ItemData ItemOID="SE.DOMAIN" Value="SE"/>
         <ItemData ItemOID="SE.USUBJID" Value="01-701-1239"/>
         <ItemData ItemOID="SE.SESEQ" Value="5"/>
         <ItemData ItemOID="SE.ETCD" Value="HIE"/>
         <ItemData ItemOID="SE.ELEMENT" Value="High_End"/>
         <ItemData ItemOID="SE.SESTDTC" Value="2014-06-27"/>
         <ItemData ItemOID="SE.SEENDTC" Value="2014-07-11"/>
      </ItemGroupData>
      <ItemGroupData data:ItemGroupDataSeq="72" ItemGroupOID="SE">
         <ItemData ItemOID="SE.STUDYID" Value="CDISCPILOT01"/>
         <ItemData ItemOID="SE.DOMAIN" Value="SE"/>
         <ItemData ItemOID="SE.USUBJID" Value="01-701-1240"/>
         <ItemData ItemOID="SE.SESEQ" Value="1"/>
         <ItemData ItemOID="SE.ETCD" Value="SCRN"/>
         <ItemData ItemOID="SE.ELEMENT" Value="Screen"/>
         <ItemData ItemOID="SE.SESTDTC" Value="2013-09-22"/>
         <ItemData ItemOID="SE.SEENDTC" Value="2013-09-24"/>
      </ItemGroupData>
      <ItemGroupData data:ItemGroupDataSeq="73" ItemGroupOID="SE">
         <ItemData ItemOID="SE.STUDYID" Value="CDISCPILOT01"/>
         <ItemData ItemOID="SE.DOMAIN" Value="SE"/>
         <ItemData ItemOID="SE.USUBJID" Value="01-701-1275"/>
         <ItemData ItemOID="SE.SESEQ" Value="1"/>
         <ItemData ItemOID="SE.ETCD" Value="SCRN"/>
         <ItemData ItemOID="SE.ELEMENT" Value="Screen"/>
         <ItemData ItemOID="SE.SESTDTC" Value="2014-01-25"/>
         <ItemData ItemOID="SE.SEENDTC" Value="2014-02-07"/>
      </ItemGroupData>
      <ItemGroupData data:ItemGroupDataSeq="74" ItemGroupOID="SE">
         <ItemData ItemOID="SE.STUDYID" Value="CDISCPILOT01"/>
         <ItemData ItemOID="SE.DOMAIN" Value="SE"/>
         <ItemData ItemOID="SE.USUBJID" Value="01-701-1275"/>
         <ItemData ItemOID="SE.SESEQ" Value="3"/>
         <ItemData ItemOID="SE.ETCD" Value="HIS"/>
         <ItemData ItemOID="SE.ELEMENT" Value="High_Start"/>
         <ItemData ItemOID="SE.SESTDTC" Value="2014-02-07"/>
         <ItemData ItemOID="SE.SEENDTC" Value="2014-02-22"/>
      </ItemGroupData>
      <ItemGroupData data:ItemGroupDataSeq="75" ItemGroupOID="SE">
         <ItemData ItemOID="SE.STUDYID" Value="CDISCPILOT01"/>
         <ItemData ItemOID="SE.DOMAIN" Value="SE"/>
         <ItemData ItemOID="SE.USUBJID" Value="01-701-1275"/>
         <ItemData ItemOID="SE.SESEQ" Value="4"/>
         <ItemData ItemOID="SE.ETCD" Value="HIM"/>
         <ItemData ItemOID="SE.ELEMENT" Value="High_Middle"/>
         <ItemData ItemOID="SE.SESTDTC" Value="2014-02-22"/>
         <ItemData ItemOID="SE.SEENDTC" Value="2014-06-14"/>
      </ItemGroupData>
      <ItemGroupData data:ItemGroupDataSeq="76" ItemGroupOID="SE">
         <ItemData ItemOID="SE.STUDYID" Value="CDISCPILOT01"/>
         <ItemData ItemOID="SE.DOMAIN" Value="SE"/>
         <ItemData ItemOID="SE.USUBJID" Value="01-701-1287"/>
         <ItemData ItemOID="SE.SESEQ" Value="1"/>
         <ItemData ItemOID="SE.ETCD" Value="SCRN"/>
         <ItemData ItemOID="SE.ELEMENT" Value="Screen"/>
         <ItemData ItemOID="SE.SESTDTC" Value="2014-01-17"/>
         <ItemData ItemOID="SE.SEENDTC" Value="2014-01-25"/>
      </ItemGroupData>
      <ItemGroupData data:ItemGroupDataSeq="77" ItemGroupOID="SE">
         <ItemData ItemOID="SE.STUDYID" Value="CDISCPILOT01"/>
         <ItemData ItemOID="SE.DOMAIN" Value="SE"/>
         <ItemData ItemOID="SE.USUBJID" Value="01-701-1287"/>
         <ItemData ItemOID="SE.SESEQ" Value="3"/>
         <ItemData ItemOID="SE.ETCD" Value="HIS"/>
         <ItemData ItemOID="SE.ELEMENT" Value="High_Start"/>
         <ItemData ItemOID="SE.SESTDTC" Value="2014-01-25"/>
         <ItemData ItemOID="SE.SEENDTC" Value="2014-02-11"/>
      </ItemGroupData>
      <ItemGroupData data:ItemGroupDataSeq="78" ItemGroupOID="SE">
         <ItemData ItemOID="SE.STUDYID" Value="CDISCPILOT01"/>
         <ItemData ItemOID="SE.DOMAIN" Value="SE"/>
         <ItemData ItemOID="SE.USUBJID" Value="01-701-1287"/>
         <ItemData ItemOID="SE.SESEQ" Value="4"/>
         <ItemData ItemOID="SE.ETCD" Value="HIM"/>
         <ItemData ItemOID="SE.ELEMENT" Value="High_Middle"/>
         <ItemData ItemOID="SE.SESTDTC" Value="2014-02-11"/>
         <ItemData ItemOID="SE.SEENDTC" Value="2014-07-12"/>
      </ItemGroupData>
      <ItemGroupData data:ItemGroupDataSeq="79" ItemGroupOID="SE">
         <ItemData ItemOID="SE.STUDYID" Value="CDISCPILOT01"/>
         <ItemData ItemOID="SE.DOMAIN" Value="SE"/>
         <ItemData ItemOID="SE.USUBJID" Value="01-701-1287"/>
         <ItemData ItemOID="SE.SESEQ" Value="5"/>
         <ItemData ItemOID="SE.ETCD" Value="HIE"/>
         <ItemData ItemOID="SE.ELEMENT" Value="High_End"/>
         <ItemData ItemOID="SE.SESTDTC" Value="2014-07-12"/>
         <ItemData ItemOID="SE.SEENDTC" Value="2014-07-26"/>
      </ItemGroupData>
      <ItemGroupData data:ItemGroupDataSeq="80" ItemGroupOID="SE">
         <ItemData ItemOID="SE.STUDYID" Value="CDISCPILOT01"/>
         <ItemData ItemOID="SE.DOMAIN" Value="SE"/>
         <ItemData ItemOID="SE.USUBJID" Value="01-701-1294"/>
         <ItemData ItemOID="SE.SESEQ" Value="1"/>
         <ItemData ItemOID="SE.ETCD" Value="SCRN"/>
         <ItemData ItemOID="SE.ELEMENT" Value="Screen"/>
         <ItemData ItemOID="SE.SESTDTC" Value="2013-03-17"/>
         <ItemData ItemOID="SE.SEENDTC" Value="2013-03-24"/>
      </ItemGroupData>
      <ItemGroupData data:ItemGroupDataSeq="81" ItemGroupOID="SE">
         <ItemData ItemOID="SE.STUDYID" Value="CDISCPILOT01"/>
         <ItemData ItemOID="SE.DOMAIN" Value="SE"/>
         <ItemData ItemOID="SE.USUBJID" Value="01-701-1294"/>
         <ItemData ItemOID="SE.SESEQ" Value="4"/>
         <ItemData ItemOID="SE.ETCD" Value="LO"/>
         <ItemData ItemOID="SE.ELEMENT" Value="Low"/>
         <ItemData ItemOID="SE.SESTDTC" Value="2013-03-24"/>
         <ItemData ItemOID="SE.SEENDTC" Value="2013-06-14"/>
      </ItemGroupData>
      <ItemGroupData data:ItemGroupDataSeq="82" ItemGroupOID="SE">
         <ItemData ItemOID="SE.STUDYID" Value="CDISCPILOT01"/>
         <ItemData ItemOID="SE.DOMAIN" Value="SE"/>
         <ItemData ItemOID="SE.USUBJID" Value="01-701-1294"/>
         <ItemData ItemOID="SE.SESEQ" Value="6"/>
         <ItemData ItemOID="SE.ETCD" Value="FOLO"/>
         <ItemData ItemOID="SE.ELEMENT" Value="Follow_up"/>
         <ItemData ItemOID="SE.SESTDTC" Value="2013-06-14"/>
         <ItemData ItemOID="SE.SEENDTC" Value="2013-10-08"/>
      </ItemGroupData>
      <ItemGroupData data:ItemGroupDataSeq="83" ItemGroupOID="SE">
         <ItemData ItemOID="SE.STUDYID" Value="CDISCPILOT01"/>
         <ItemData ItemOID="SE.DOMAIN" Value="SE"/>
         <ItemData ItemOID="SE.USUBJID" Value="01-701-1302"/>
         <ItemData ItemOID="SE.SESEQ" Value="1"/>
         <ItemData ItemOID="SE.ETCD" Value="SCRN"/>
         <ItemData ItemOID="SE.ELEMENT" Value="Screen"/>
         <ItemData ItemOID="SE.SESTDTC" Value="2013-08-20"/>
         <ItemData ItemOID="SE.SEENDTC" Value="2013-08-29"/>
      </ItemGroupData>
      <ItemGroupData data:ItemGroupDataSeq="84" ItemGroupOID="SE">
         <ItemData ItemOID="SE.STUDYID" Value="CDISCPILOT01"/>
         <ItemData ItemOID="SE.DOMAIN" Value="SE"/>
         <ItemData ItemOID="SE.USUBJID" Value="01-701-1302"/>
         <ItemData ItemOID="SE.SESEQ" Value="3"/>
         <ItemData ItemOID="SE.ETCD" Value="HIS"/>
         <ItemData ItemOID="SE.ELEMENT" Value="High_Start"/>
         <ItemData ItemOID="SE.SESTDTC" Value="2013-08-29"/>
         <ItemData ItemOID="SE.SEENDTC" Value="2013-09-15"/>
      </ItemGroupData>
      <ItemGroupData data:ItemGroupDataSeq="85" ItemGroupOID="SE">
         <ItemData ItemOID="SE.STUDYID" Value="CDISCPILOT01"/>
         <ItemData ItemOID="SE.DOMAIN" Value="SE"/>
         <ItemData ItemOID="SE.USUBJID" Value="01-701-1302"/>
         <ItemData ItemOID="SE.SESEQ" Value="4"/>
         <ItemData ItemOID="SE.ETCD" Value="HIM"/>
         <ItemData ItemOID="SE.ELEMENT" Value="High_Middle"/>
         <ItemData ItemOID="SE.SESTDTC" Value="2013-09-15"/>
         <ItemData ItemOID="SE.SEENDTC" Value="2013-11-05"/>
      </ItemGroupData>
      <ItemGroupData data:ItemGroupDataSeq="86" ItemGroupOID="SE">
         <ItemData ItemOID="SE.STUDYID" Value="CDISCPILOT01"/>
         <ItemData ItemOID="SE.DOMAIN" Value="SE"/>
         <ItemData ItemOID="SE.USUBJID" Value="01-701-1302"/>
         <ItemData ItemOID="SE.SESEQ" Value="6"/>
         <ItemData ItemOID="SE.ETCD" Value="FOLO"/>
         <ItemData ItemOID="SE.ELEMENT" Value="Follow_up"/>
         <ItemData ItemOID="SE.SESTDTC" Value="2013-11-05"/>
         <ItemData ItemOID="SE.SEENDTC" Value="2014-02-13"/>
      </ItemGroupData>
      <ItemGroupData data:ItemGroupDataSeq="87" ItemGroupOID="SE">
         <ItemData ItemOID="SE.STUDYID" Value="CDISCPILOT01"/>
         <ItemData ItemOID="SE.DOMAIN" Value="SE"/>
         <ItemData ItemOID="SE.USUBJID" Value="01-701-1307"/>
         <ItemData ItemOID="SE.SESEQ" Value="1"/>
         <ItemData ItemOID="SE.ETCD" Value="SCRN"/>
         <ItemData ItemOID="SE.ELEMENT" Value="Screen"/>
         <ItemData ItemOID="SE.SESTDTC" Value="2013-12-08"/>
         <ItemData ItemOID="SE.SEENDTC" Value="2014-01-02"/>
      </ItemGroupData>
      <ItemGroupData data:ItemGroupDataSeq="88" ItemGroupOID="SE">
         <ItemData ItemOID="SE.STUDYID" Value="CDISCPILOT01"/>
         <ItemData ItemOID="SE.DOMAIN" Value="SE"/>
         <ItemData ItemOID="SE.USUBJID" Value="01-701-1317"/>
         <ItemData ItemOID="SE.SESEQ" Value="1"/>
         <ItemData ItemOID="SE.ETCD" Value="SCRN"/>
         <ItemData ItemOID="SE.ELEMENT" Value="Screen"/>
         <ItemData ItemOID="SE.SESTDTC" Value="2014-05-10"/>
         <ItemData ItemOID="SE.SEENDTC" Value="2014-05-22"/>
      </ItemGroupData>
      <ItemGroupData data:ItemGroupDataSeq="89" ItemGroupOID="SE">
         <ItemData ItemOID="SE.STUDYID" Value="CDISCPILOT01"/>
         <ItemData ItemOID="SE.DOMAIN" Value="SE"/>
         <ItemData ItemOID="SE.USUBJID" Value="01-701-1317"/>
         <ItemData ItemOID="SE.SESEQ" Value="4"/>
         <ItemData ItemOID="SE.ETCD" Value="LO"/>
         <ItemData ItemOID="SE.ELEMENT" Value="Low"/>
         <ItemData ItemOID="SE.SESTDTC" Value="2014-05-22"/>
         <ItemData ItemOID="SE.SEENDTC" Value="2014-11-20"/>
      </ItemGroupData>
      <ItemGroupData data:ItemGroupDataSeq="90" ItemGroupOID="SE">
         <ItemData ItemOID="SE.STUDYID" Value="CDISCPILOT01"/>
         <ItemData ItemOID="SE.DOMAIN" Value="SE"/>
         <ItemData ItemOID="SE.USUBJID" Value="01-701-1324"/>
         <ItemData ItemOID="SE.SESEQ" Value="1"/>
         <ItemData ItemOID="SE.ETCD" Value="SCRN"/>
         <ItemData ItemOID="SE.ELEMENT" Value="Screen"/>
         <ItemData ItemOID="SE.SESTDTC" Value="2012-09-16"/>
         <ItemData ItemOID="SE.SEENDTC" Value="2012-10-02"/>
      </ItemGroupData>
      <ItemGroupData data:ItemGroupDataSeq="91" ItemGroupOID="SE">
         <ItemData ItemOID="SE.STUDYID" Value="CDISCPILOT01"/>
         <ItemData ItemOID="SE.DOMAIN" Value="SE"/>
         <ItemData ItemOID="SE.USUBJID" Value="01-701-1324"/>
         <ItemData ItemOID="SE.SESEQ" Value="4"/>
         <ItemData ItemOID="SE.ETCD" Value="LO"/>
         <ItemData ItemOID="SE.ELEMENT" Value="Low"/>
         <ItemData ItemOID="SE.SESTDTC" Value="2012-10-02"/>
         <ItemData ItemOID="SE.SEENDTC" Value="2013-04-02"/>
      </ItemGroupData>
      <ItemGroupData data:ItemGroupDataSeq="92" ItemGroupOID="SE">
         <ItemData ItemOID="SE.STUDYID" Value="CDISCPILOT01"/>
         <ItemData ItemOID="SE.DOMAIN" Value="SE"/>
         <ItemData ItemOID="SE.USUBJID" Value="01-701-1341"/>
         <ItemData ItemOID="SE.SESEQ" Value="1"/>
         <ItemData ItemOID="SE.ETCD" Value="SCRN"/>
         <ItemData ItemOID="SE.ELEMENT" Value="Screen"/>
         <ItemData ItemOID="SE.SESTDTC" Value="2012-12-22"/>
         <ItemData ItemOID="SE.SEENDTC" Value="2013-01-05"/>
      </ItemGroupData>
      <ItemGroupData data:ItemGroupDataSeq="93" ItemGroupOID="SE">
         <ItemData ItemOID="SE.STUDYID" Value="CDISCPILOT01"/>
         <ItemData ItemOID="SE.DOMAIN" Value="SE"/>
         <ItemData ItemOID="SE.USUBJID" Value="01-701-1341"/>
         <ItemData ItemOID="SE.SESEQ" Value="4"/>
         <ItemData ItemOID="SE.ETCD" Value="LO"/>
         <ItemData ItemOID="SE.ELEMENT" Value="Low"/>
         <ItemData ItemOID="SE.SESTDTC" Value="2013-01-05"/>
         <ItemData ItemOID="SE.SEENDTC" Value="2013-02-07"/>
      </ItemGroupData>
      <ItemGroupData data:ItemGroupDataSeq="94" ItemGroupOID="SE">
         <ItemData ItemOID="SE.STUDYID" Value="CDISCPILOT01"/>
         <ItemData ItemOID="SE.DOMAIN" Value="SE"/>
         <ItemData ItemOID="SE.USUBJID" Value="01-701-1341"/>
         <ItemData ItemOID="SE.SESEQ" Value="6"/>
         <ItemData ItemOID="SE.ETCD" Value="FOLO"/>
         <ItemData ItemOID="SE.ELEMENT" Value="Follow_up"/>
         <ItemData ItemOID="SE.SESTDTC" Value="2013-02-07"/>
         <ItemData ItemOID="SE.SEENDTC" Value="2013-02-21"/>
      </ItemGroupData>
      <ItemGroupData data:ItemGroupDataSeq="95" ItemGroupOID="SE">
         <ItemData ItemOID="SE.STUDYID" Value="CDISCPILOT01"/>
         <ItemData ItemOID="SE.DOMAIN" Value="SE"/>
         <ItemData ItemOID="SE.USUBJID" Value="01-701-1345"/>
         <ItemData ItemOID="SE.SESEQ" Value="1"/>
         <ItemData ItemOID="SE.ETCD" Value="SCRN"/>
         <ItemData ItemOID="SE.ELEMENT" Value="Screen"/>
         <ItemData ItemOID="SE.SESTDTC" Value="2013-10-01"/>
         <ItemData ItemOID="SE.SEENDTC" Value="2013-10-08"/>
      </ItemGroupData>
      <ItemGroupData data:ItemGroupDataSeq="96" ItemGroupOID="SE">
         <ItemData ItemOID="SE.STUDYID" Value="CDISCPILOT01"/>
         <ItemData ItemOID="SE.DOMAIN" Value="SE"/>
         <ItemData ItemOID="SE.USUBJID" Value="01-701-1345"/>
         <ItemData ItemOID="SE.SESEQ" Value="4"/>
         <ItemData ItemOID="SE.ETCD" Value="PBO"/>
         <ItemData ItemOID="SE.ELEMENT" Value="Placebo"/>
         <ItemData ItemOID="SE.SESTDTC" Value="2013-10-08"/>
         <ItemData ItemOID="SE.SEENDTC" Value="2014-03-18"/>
      </ItemGroupData>
      <ItemGroupData data:ItemGroupDataSeq="97" ItemGroupOID="SE">
         <ItemData ItemOID="SE.STUDYID" Value="CDISCPILOT01"/>
         <ItemData ItemOID="SE.DOMAIN" Value="SE"/>
         <ItemData ItemOID="SE.USUBJID" Value="01-701-1356"/>
         <ItemData ItemOID="SE.SESEQ" Value="1"/>
         <ItemData ItemOID="SE.ETCD" Value="SCRN"/>
         <ItemData ItemOID="SE.ELEMENT" Value="Screen"/>
         <ItemData ItemOID="SE.SESTDTC" Value="2014-04-01"/>
         <ItemData ItemOID="SE.SEENDTC" Value="2014-05-28"/>
      </ItemGroupData>
      <ItemGroupData data:ItemGroupDataSeq="98" ItemGroupOID="SE">
         <ItemData ItemOID="SE.STUDYID" Value="CDISCPILOT01"/>
         <ItemData ItemOID="SE.DOMAIN" Value="SE"/>
         <ItemData ItemOID="SE.USUBJID" Value="01-701-1360"/>
         <ItemData ItemOID="SE.SESEQ" Value="1"/>
         <ItemData ItemOID="SE.ETCD" Value="SCRN"/>
         <ItemData ItemOID="SE.ELEMENT" Value="Screen"/>
         <ItemData ItemOID="SE.SESTDTC" Value="2013-07-24"/>
         <ItemData ItemOID="SE.SEENDTC" Value="2013-07-31"/>
      </ItemGroupData>
      <ItemGroupData data:ItemGroupDataSeq="99" ItemGroupOID="SE">
         <ItemData ItemOID="SE.STUDYID" Value="CDISCPILOT01"/>
         <ItemData ItemOID="SE.DOMAIN" Value="SE"/>
         <ItemData ItemOID="SE.USUBJID" Value="01-701-1360"/>
         <ItemData ItemOID="SE.SESEQ" Value="3"/>
         <ItemData ItemOID="SE.ETCD" Value="HIS"/>
         <ItemData ItemOID="SE.ELEMENT" Value="High_Start"/>
         <ItemData ItemOID="SE.SESTDTC" Value="2013-07-31"/>
         <ItemData ItemOID="SE.SEENDTC" Value="2013-08-14"/>
      </ItemGroupData>
      <ItemGroupData data:ItemGroupDataSeq="100" ItemGroupOID="SE">
         <ItemData ItemOID="SE.STUDYID" Value="CDISCPILOT01"/>
         <ItemData ItemOID="SE.DOMAIN" Value="SE"/>
         <ItemData ItemOID="SE.USUBJID" Value="01-701-1360"/>
         <ItemData ItemOID="SE.SESEQ" Value="6"/>
         <ItemData ItemOID="SE.ETCD" Value="FOLO"/>
         <ItemData ItemOID="SE.ELEMENT" Value="Follow_up"/>
         <ItemData ItemOID="SE.SESTDTC" Value="2013-08-14"/>
         <ItemData ItemOID="SE.SEENDTC" Value="2014-02-11"/>
      </ItemGroupData>
      <ItemGroupData data:ItemGroupDataSeq="101" ItemGroupOID="SE">
         <ItemData ItemOID="SE.STUDYID" Value="CDISCPILOT01"/>
         <ItemData ItemOID="SE.DOMAIN" Value="SE"/>
         <ItemData ItemOID="SE.USUBJID" Value="01-701-1363"/>
         <ItemData ItemOID="SE.SESEQ" Value="1"/>
         <ItemData ItemOID="SE.ETCD" Value="SCRN"/>
         <ItemData ItemOID="SE.ELEMENT" Value="Screen"/>
         <ItemData ItemOID="SE.SESTDTC" Value="2013-05-20"/>
         <ItemData ItemOID="SE.SEENDTC" Value="2013-05-30"/>
      </ItemGroupData>
      <ItemGroupData data:ItemGroupDataSeq="102" ItemGroupOID="SE">
         <ItemData ItemOID="SE.STUDYID" Value="CDISCPILOT01"/>
         <ItemData ItemOID="SE.DOMAIN" Value="SE"/>
         <ItemData ItemOID="SE.USUBJID" Value="01-701-1363"/>
         <ItemData ItemOID="SE.SESEQ" Value="4"/>
         <ItemData ItemOID="SE.ETCD" Value="PBO"/>
         <ItemData ItemOID="SE.ELEMENT" Value="Placebo"/>
         <ItemData ItemOID="SE.SESTDTC" Value="2013-05-30"/>
         <ItemData ItemOID="SE.SEENDTC" Value="2013-11-27"/>
      </ItemGroupData>
      <ItemGroupData data:ItemGroupDataSeq="103" ItemGroupOID="SE">
         <ItemData ItemOID="SE.STUDYID" Value="CDISCPILOT01"/>
         <ItemData ItemOID="SE.DOMAIN" Value="SE"/>
         <ItemData ItemOID="SE.USUBJID" Value="01-701-1369"/>
         <ItemData ItemOID="SE.SESEQ" Value="1"/>
         <ItemData ItemOID="SE.ETCD" Value="SCRN"/>
         <ItemData ItemOID="SE.ELEMENT" Value="Screen"/>
         <ItemData ItemOID="SE.SESTDTC" Value="2013-09-18"/>
         <ItemData ItemOID="SE.SEENDTC" Value="2013-09-30"/>
      </ItemGroupData>
      <ItemGroupData data:ItemGroupDataSeq="104" ItemGroupOID="SE">
         <ItemData ItemOID="SE.STUDYID" Value="CDISCPILOT01"/>
         <ItemData ItemOID="SE.DOMAIN" Value="SE"/>
         <ItemData ItemOID="SE.USUBJID" Value="01-701-1383"/>
         <ItemData ItemOID="SE.SESEQ" Value="1"/>
         <ItemData ItemOID="SE.ETCD" Value="SCRN"/>
         <ItemData ItemOID="SE.ELEMENT" Value="Screen"/>
         <ItemData ItemOID="SE.SESTDTC" Value="2013-01-22"/>
         <ItemData ItemOID="SE.SEENDTC" Value="2013-02-04"/>
      </ItemGroupData>
      <ItemGroupData data:ItemGroupDataSeq="105" ItemGroupOID="SE">
         <ItemData ItemOID="SE.STUDYID" Value="CDISCPILOT01"/>
         <ItemData ItemOID="SE.DOMAIN" Value="SE"/>
         <ItemData ItemOID="SE.USUBJID" Value="01-701-1383"/>
         <ItemData ItemOID="SE.SESEQ" Value="3"/>
         <ItemData ItemOID="SE.ETCD" Value="HIS"/>
         <ItemData ItemOID="SE.ELEMENT" Value="High_Start"/>
         <ItemData ItemOID="SE.SESTDTC" Value="2013-02-04"/>
         <ItemData ItemOID="SE.SEENDTC" Value="2013-02-19"/>
      </ItemGroupData>
      <ItemGroupData data:ItemGroupDataSeq="106" ItemGroupOID="SE">
         <ItemData ItemOID="SE.STUDYID" Value="CDISCPILOT01"/>
         <ItemData ItemOID="SE.DOMAIN" Value="SE"/>
         <ItemData ItemOID="SE.USUBJID" Value="01-701-1383"/>
         <ItemData ItemOID="SE.SESEQ" Value="4"/>
         <ItemData ItemOID="SE.ETCD" Value="HIM"/>
         <ItemData ItemOID="SE.ELEMENT" Value="High_Middle"/>
         <ItemData ItemOID="SE.SESTDTC" Value="2013-02-19"/>
         <ItemData ItemOID="SE.SEENDTC" Value="2013-07-30"/>
      </ItemGroupData>
      <ItemGroupData data:ItemGroupDataSeq="107" ItemGroupOID="SE">
         <ItemData ItemOID="SE.STUDYID" Value="CDISCPILOT01"/>
         <ItemData ItemOID="SE.DOMAIN" Value="SE"/>
         <ItemData ItemOID="SE.USUBJID" Value="01-701-1383"/>
         <ItemData ItemOID="SE.SESEQ" Value="5"/>
         <ItemData ItemOID="SE.ETCD" Value="HIE"/>
         <ItemData ItemOID="SE.ELEMENT" Value="High_End"/>
         <ItemData ItemOID="SE.SESTDTC" Value="2013-07-30"/>
         <ItemData ItemOID="SE.SEENDTC" Value="2013-08-06"/>
      </ItemGroupData>
      <ItemGroupData data:ItemGroupDataSeq="108" ItemGroupOID="SE">
         <ItemData ItemOID="SE.STUDYID" Value="CDISCPILOT01"/>
         <ItemData ItemOID="SE.DOMAIN" Value="SE"/>
         <ItemData ItemOID="SE.USUBJID" Value="01-701-1386"/>
         <ItemData ItemOID="SE.SESEQ" Value="1"/>
         <ItemData ItemOID="SE.ETCD" Value="SCRN"/>
         <ItemData ItemOID="SE.ELEMENT" Value="Screen"/>
         <ItemData ItemOID="SE.SESTDTC" Value="2013-12-28"/>
         <ItemData ItemOID="SE.SEENDTC" Value="2014-01-07"/>
      </ItemGroupData>
      <ItemGroupData data:ItemGroupDataSeq="109" ItemGroupOID="SE">
         <ItemData ItemOID="SE.STUDYID" Value="CDISCPILOT01"/>
         <ItemData ItemOID="SE.DOMAIN" Value="SE"/>
         <ItemData ItemOID="SE.USUBJID" Value="01-701-1387"/>
         <ItemData ItemOID="SE.SESEQ" Value="1"/>
         <ItemData ItemOID="SE.ETCD" Value="SCRN"/>
         <ItemData ItemOID="SE.ELEMENT" Value="Screen"/>
         <ItemData ItemOID="SE.SESTDTC" Value="2014-02-23"/>
         <ItemData ItemOID="SE.SEENDTC" Value="2014-03-12"/>
      </ItemGroupData>
      <ItemGroupData data:ItemGroupDataSeq="110" ItemGroupOID="SE">
         <ItemData ItemOID="SE.STUDYID" Value="CDISCPILOT01"/>
         <ItemData ItemOID="SE.DOMAIN" Value="SE"/>
         <ItemData ItemOID="SE.USUBJID" Value="01-701-1387"/>
         <ItemData ItemOID="SE.SESEQ" Value="4"/>
         <ItemData ItemOID="SE.ETCD" Value="PBO"/>
         <ItemData ItemOID="SE.ELEMENT" Value="Placebo"/>
         <ItemData ItemOID="SE.SESTDTC" Value="2014-03-12"/>
         <ItemData ItemOID="SE.SEENDTC" Value="2014-03-25"/>
      </ItemGroupData>
      <ItemGroupData data:ItemGroupDataSeq="111" ItemGroupOID="SE">
         <ItemData ItemOID="SE.STUDYID" Value="CDISCPILOT01"/>
         <ItemData ItemOID="SE.DOMAIN" Value="SE"/>
         <ItemData ItemOID="SE.USUBJID" Value="01-701-1387"/>
         <ItemData ItemOID="SE.SESEQ" Value="6"/>
         <ItemData ItemOID="SE.ETCD" Value="FOLO"/>
         <ItemData ItemOID="SE.ELEMENT" Value="Follow_up"/>
         <ItemData ItemOID="SE.SESTDTC" Value="2014-03-25"/>
         <ItemData ItemOID="SE.SEENDTC" Value="2014-08-27"/>
      </ItemGroupData>
      <ItemGroupData data:ItemGroupDataSeq="112" ItemGroupOID="SE">
         <ItemData ItemOID="SE.STUDYID" Value="CDISCPILOT01"/>
         <ItemData ItemOID="SE.DOMAIN" Value="SE"/>
         <ItemData ItemOID="SE.USUBJID" Value="01-701-1392"/>
         <ItemData ItemOID="SE.SESEQ" Value="1"/>
         <ItemData ItemOID="SE.ETCD" Value="SCRN"/>
         <ItemData ItemOID="SE.ELEMENT" Value="Screen"/>
         <ItemData ItemOID="SE.SESTDTC" Value="2012-10-17"/>
         <ItemData ItemOID="SE.SEENDTC" Value="2012-10-28"/>
      </ItemGroupData>
      <ItemGroupData data:ItemGroupDataSeq="113" ItemGroupOID="SE">
         <ItemData ItemOID="SE.STUDYID" Value="CDISCPILOT01"/>
         <ItemData ItemOID="SE.DOMAIN" Value="SE"/>
         <ItemData ItemOID="SE.USUBJID" Value="01-701-1392"/>
         <ItemData ItemOID="SE.SESEQ" Value="4"/>
         <ItemData ItemOID="SE.ETCD" Value="PBO"/>
         <ItemData ItemOID="SE.ELEMENT" Value="Placebo"/>
         <ItemData ItemOID="SE.SESTDTC" Value="2012-10-28"/>
         <ItemData ItemOID="SE.SEENDTC" Value="2013-04-28"/>
      </ItemGroupData>
      <ItemGroupData data:ItemGroupDataSeq="114" ItemGroupOID="SE">
         <ItemData ItemOID="SE.STUDYID" Value="CDISCPILOT01"/>
         <ItemData ItemOID="SE.DOMAIN" Value="SE"/>
         <ItemData ItemOID="SE.USUBJID" Value="01-701-1411"/>
         <ItemData ItemOID="SE.SESEQ" Value="1"/>
         <ItemData ItemOID="SE.ETCD" Value="SCRN"/>
         <ItemData ItemOID="SE.ELEMENT" Value="Screen"/>
         <ItemData ItemOID="SE.SESTDTC" Value="2012-11-14"/>
         <ItemData ItemOID="SE.SEENDTC" Value="2012-11-24"/>
      </ItemGroupData>
      <ItemGroupData data:ItemGroupDataSeq="115" ItemGroupOID="SE">
         <ItemData ItemOID="SE.STUDYID" Value="CDISCPILOT01"/>
         <ItemData ItemOID="SE.DOMAIN" Value="SE"/>
         <ItemData ItemOID="SE.USUBJID" Value="01-701-1415"/>
         <ItemData ItemOID="SE.SESEQ" Value="1"/>
         <ItemData ItemOID="SE.ETCD" Value="SCRN"/>
         <ItemData ItemOID="SE.ELEMENT" Value="Screen"/>
         <ItemData ItemOID="SE.SESTDTC" Value="2013-09-15"/>
         <ItemData ItemOID="SE.SEENDTC" Value="2013-09-23"/>
      </ItemGroupData>
      <ItemGroupData data:ItemGroupDataSeq="116" ItemGroupOID="SE">
         <ItemData ItemOID="SE.STUDYID" Value="CDISCPILOT01"/>
         <ItemData ItemOID="SE.DOMAIN" Value="SE"/>
         <ItemData ItemOID="SE.USUBJID" Value="01-701-1415"/>
         <ItemData ItemOID="SE.SESEQ" Value="4"/>
         <ItemData ItemOID="SE.ETCD" Value="PBO"/>
         <ItemData ItemOID="SE.ELEMENT" Value="Placebo"/>
         <ItemData ItemOID="SE.SESTDTC" Value="2013-09-23"/>
         <ItemData ItemOID="SE.SEENDTC" Value="2014-03-24"/>
      </ItemGroupData>
      <ItemGroupData data:ItemGroupDataSeq="117" ItemGroupOID="SE">
         <ItemData ItemOID="SE.STUDYID" Value="CDISCPILOT01"/>
         <ItemData ItemOID="SE.DOMAIN" Value="SE"/>
         <ItemData ItemOID="SE.USUBJID" Value="01-701-1429"/>
         <ItemData ItemOID="SE.SESEQ" Value="1"/>
         <ItemData ItemOID="SE.ETCD" Value="SCRN"/>
         <ItemData ItemOID="SE.ELEMENT" Value="Screen"/>
         <ItemData ItemOID="SE.SESTDTC" Value="2013-02-25"/>
         <ItemData ItemOID="SE.SEENDTC" Value="2013-03-19"/>
      </ItemGroupData>
      <ItemGroupData data:ItemGroupDataSeq="118" ItemGroupOID="SE">
         <ItemData ItemOID="SE.STUDYID" Value="CDISCPILOT01"/>
         <ItemData ItemOID="SE.DOMAIN" Value="SE"/>
         <ItemData ItemOID="SE.USUBJID" Value="01-701-1429"/>
         <ItemData ItemOID="SE.SESEQ" Value="4"/>
         <ItemData ItemOID="SE.ETCD" Value="LO"/>
         <ItemData ItemOID="SE.ELEMENT" Value="Low"/>
         <ItemData ItemOID="SE.SESTDTC" Value="2013-03-19"/>
         <ItemData ItemOID="SE.SEENDTC" Value="2013-04-30"/>
      </ItemGroupData>
      <ItemGroupData data:ItemGroupDataSeq="119" ItemGroupOID="SE">
         <ItemData ItemOID="SE.STUDYID" Value="CDISCPILOT01"/>
         <ItemData ItemOID="SE.DOMAIN" Value="SE"/>
         <ItemData ItemOID="SE.USUBJID" Value="01-701-1440"/>
         <ItemData ItemOID="SE.SESEQ" Value="1"/>
         <ItemData ItemOID="SE.ETCD" Value="SCRN"/>
         <ItemData ItemOID="SE.ELEMENT" Value="Screen"/>
         <ItemData ItemOID="SE.SESTDTC" Value="2013-07-24"/>
         <ItemData ItemOID="SE.SEENDTC" Value="2013-08-08"/>
      </ItemGroupData>
      <ItemGroupData data:ItemGroupDataSeq="120" ItemGroupOID="SE">
         <ItemData ItemOID="SE.STUDYID" Value="CDISCPILOT01"/>
         <ItemData ItemOID="SE.DOMAIN" Value="SE"/>
         <ItemData ItemOID="SE.USUBJID" Value="01-701-1440"/>
         <ItemData ItemOID="SE.SESEQ" Value="4"/>
         <ItemData ItemOID="SE.ETCD" Value="PBO"/>
         <ItemData ItemOID="SE.ELEMENT" Value="Placebo"/>
         <ItemData ItemOID="SE.SESTDTC" Value="2013-08-08"/>
         <ItemData ItemOID="SE.SEENDTC" Value="2014-02-05"/>
      </ItemGroupData>
      <ItemGroupData data:ItemGroupDataSeq="121" ItemGroupOID="SE">
         <ItemData ItemOID="SE.STUDYID" Value="CDISCPILOT01"/>
         <ItemData ItemOID="SE.DOMAIN" Value="SE"/>
         <ItemData ItemOID="SE.USUBJID" Value="01-701-1442"/>
         <ItemData ItemOID="SE.SESEQ" Value="1"/>
         <ItemData ItemOID="SE.ETCD" Value="SCRN"/>
         <ItemData ItemOID="SE.ELEMENT" Value="Screen"/>
         <ItemData ItemOID="SE.SESTDTC" Value="2013-10-17"/>
         <ItemData ItemOID="SE.SEENDTC" Value="2013-10-26"/>
      </ItemGroupData>
      <ItemGroupData data:ItemGroupDataSeq="122" ItemGroupOID="SE">
         <ItemData ItemOID="SE.STUDYID" Value="CDISCPILOT01"/>
         <ItemData ItemOID="SE.DOMAIN" Value="SE"/>
         <ItemData ItemOID="SE.USUBJID" Value="01-701-1442"/>
         <ItemData ItemOID="SE.SESEQ" Value="4"/>
         <ItemData ItemOID="SE.ETCD" Value="LO"/>
         <ItemData ItemOID="SE.ELEMENT" Value="Low"/>
         <ItemData ItemOID="SE.SESTDTC" Value="2013-10-26"/>
         <ItemData ItemOID="SE.SEENDTC" Value="2014-04-26"/>
      </ItemGroupData>
      <ItemGroupData data:ItemGroupDataSeq="123" ItemGroupOID="SE">
         <ItemData ItemOID="SE.STUDYID" Value="CDISCPILOT01"/>
         <ItemData ItemOID="SE.DOMAIN" Value="SE"/>
         <ItemData ItemOID="SE.USUBJID" Value="01-701-1444"/>
         <ItemData ItemOID="SE.SESEQ" Value="1"/>
         <ItemData ItemOID="SE.ETCD" Value="SCRN"/>
         <ItemData ItemOID="SE.ELEMENT" Value="Screen"/>
         <ItemData ItemOID="SE.SESTDTC" Value="2012-12-31"/>
         <ItemData ItemOID="SE.SEENDTC" Value="2013-01-05"/>
      </ItemGroupData>
      <ItemGroupData data:ItemGroupDataSeq="124" ItemGroupOID="SE">
         <ItemData ItemOID="SE.STUDYID" Value="CDISCPILOT01"/>
         <ItemData ItemOID="SE.DOMAIN" Value="SE"/>
         <ItemData ItemOID="SE.USUBJID" Value="01-701-1444"/>
         <ItemData ItemOID="SE.SESEQ" Value="3"/>
         <ItemData ItemOID="SE.ETCD" Value="HIS"/>
         <ItemData ItemOID="SE.ELEMENT" Value="High_Start"/>
         <ItemData ItemOID="SE.SESTDTC" Value="2013-01-05"/>
         <ItemData ItemOID="SE.SEENDTC" Value="2013-01-18"/>
      </ItemGroupData>
      <ItemGroupData data:ItemGroupDataSeq="125" ItemGroupOID="SE">
         <ItemData ItemOID="SE.STUDYID" Value="CDISCPILOT01"/>
         <ItemData ItemOID="SE.DOMAIN" Value="SE"/>
         <ItemData ItemOID="SE.USUBJID" Value="01-701-1444"/>
         <ItemData ItemOID="SE.SESEQ" Value="4"/>
         <ItemData ItemOID="SE.ETCD" Value="HIM"/>
         <ItemData ItemOID="SE.ELEMENT" Value="High_Middle"/>
         <ItemData ItemOID="SE.SESTDTC" Value="2013-01-18"/>
         <ItemData ItemOID="SE.SEENDTC" Value="2013-02-13"/>
      </ItemGroupData>
      <ItemGroupData data:ItemGroupDataSeq="126" ItemGroupOID="SE">
         <ItemData ItemOID="SE.STUDYID" Value="CDISCPILOT01"/>
         <ItemData ItemOID="SE.DOMAIN" Value="SE"/>
         <ItemData ItemOID="SE.USUBJID" Value="01-701-1444"/>
         <ItemData ItemOID="SE.SESEQ" Value="6"/>
         <ItemData ItemOID="SE.ETCD" Value="FOLO"/>
         <ItemData ItemOID="SE.ELEMENT" Value="Follow_up"/>
         <ItemData ItemOID="SE.SESTDTC" Value="2013-02-13"/>
         <ItemData ItemOID="SE.SEENDTC" Value="2013-06-20"/>
      </ItemGroupData>
      <ItemGroupData data:ItemGroupDataSeq="127" ItemGroupOID="SE">
         <ItemData ItemOID="SE.STUDYID" Value="CDISCPILOT01"/>
         <ItemData ItemOID="SE.DOMAIN" Value="SE"/>
         <ItemData ItemOID="SE.USUBJID" Value="01-702-1082"/>
         <ItemData ItemOID="SE.SESEQ" Value="1"/>
         <ItemData ItemOID="SE.ETCD" Value="SCRN"/>
         <ItemData ItemOID="SE.ELEMENT" Value="Screen"/>
         <ItemData ItemOID="SE.SESTDTC" Value="2013-07-03"/>
         <ItemData ItemOID="SE.SEENDTC" Value="2013-07-26"/>
      </ItemGroupData>
      <ItemGroupData data:ItemGroupDataSeq="128" ItemGroupOID="SE">
         <ItemData ItemOID="SE.STUDYID" Value="CDISCPILOT01"/>
         <ItemData ItemOID="SE.DOMAIN" Value="SE"/>
         <ItemData ItemOID="SE.USUBJID" Value="01-702-1082"/>
         <ItemData ItemOID="SE.SESEQ" Value="4"/>
         <ItemData ItemOID="SE.ETCD" Value="LO"/>
         <ItemData ItemOID="SE.ELEMENT" Value="Low"/>
         <ItemData ItemOID="SE.SESTDTC" Value="2013-07-26"/>
         <ItemData ItemOID="SE.SEENDTC" Value="2013-11-17"/>
      </ItemGroupData>
      <ItemGroupData data:ItemGroupDataSeq="129" ItemGroupOID="SE">
         <ItemData ItemOID="SE.STUDYID" Value="CDISCPILOT01"/>
         <ItemData ItemOID="SE.DOMAIN" Value="SE"/>
         <ItemData ItemOID="SE.USUBJID" Value="01-703-1042"/>
         <ItemData ItemOID="SE.SESEQ" Value="1"/>
         <ItemData ItemOID="SE.ETCD" Value="SCRN"/>
         <ItemData ItemOID="SE.ELEMENT" Value="Screen"/>
         <ItemData ItemOID="SE.SESTDTC" Value="2013-02-23"/>
         <ItemData ItemOID="SE.SEENDTC" Value="2013-03-02"/>
      </ItemGroupData>
      <ItemGroupData data:ItemGroupDataSeq="130" ItemGroupOID="SE">
         <ItemData ItemOID="SE.STUDYID" Value="CDISCPILOT01"/>
         <ItemData ItemOID="SE.DOMAIN" Value="SE"/>
         <ItemData ItemOID="SE.USUBJID" Value="01-703-1042"/>
         <ItemData ItemOID="SE.SESEQ" Value="4"/>
         <ItemData ItemOID="SE.ETCD" Value="PBO"/>
         <ItemData ItemOID="SE.ELEMENT" Value="Placebo"/>
         <ItemData ItemOID="SE.SESTDTC" Value="2013-03-02"/>
         <ItemData ItemOID="SE.SEENDTC" Value="2013-08-31"/>
      </ItemGroupData>
      <ItemGroupData data:ItemGroupDataSeq="131" ItemGroupOID="SE">
         <ItemData ItemOID="SE.STUDYID" Value="CDISCPILOT01"/>
         <ItemData ItemOID="SE.DOMAIN" Value="SE"/>
         <ItemData ItemOID="SE.USUBJID" Value="01-703-1076"/>
         <ItemData ItemOID="SE.SESEQ" Value="1"/>
         <ItemData ItemOID="SE.ETCD" Value="SCRN"/>
         <ItemData ItemOID="SE.ELEMENT" Value="Screen"/>
         <ItemData ItemOID="SE.SESTDTC" Value="2013-10-17"/>
         <ItemData ItemOID="SE.SEENDTC" Value="2013-10-25"/>
      </ItemGroupData>
      <ItemGroupData data:ItemGroupDataSeq="132" ItemGroupOID="SE">
         <ItemData ItemOID="SE.STUDYID" Value="CDISCPILOT01"/>
         <ItemData ItemOID="SE.DOMAIN" Value="SE"/>
         <ItemData ItemOID="SE.USUBJID" Value="01-703-1076"/>
         <ItemData ItemOID="SE.SESEQ" Value="3"/>
         <ItemData ItemOID="SE.ETCD" Value="HIS"/>
         <ItemData ItemOID="SE.ELEMENT" Value="High_Start"/>
         <ItemData ItemOID="SE.SESTDTC" Value="2013-10-25"/>
         <ItemData ItemOID="SE.SEENDTC" Value="2013-11-06"/>
      </ItemGroupData>
      <ItemGroupData data:ItemGroupDataSeq="133" ItemGroupOID="SE">
         <ItemData ItemOID="SE.STUDYID" Value="CDISCPILOT01"/>
         <ItemData ItemOID="SE.DOMAIN" Value="SE"/>
         <ItemData ItemOID="SE.USUBJID" Value="01-703-1076"/>
         <ItemData ItemOID="SE.SESEQ" Value="4"/>
         <ItemData ItemOID="SE.ETCD" Value="HIM"/>
         <ItemData ItemOID="SE.ELEMENT" Value="High_Middle"/>
         <ItemData ItemOID="SE.SESTDTC" Value="2013-11-06"/>
         <ItemData ItemOID="SE.SEENDTC" Value="2013-12-24"/>
      </ItemGroupData>
      <ItemGroupData data:ItemGroupDataSeq="134" ItemGroupOID="SE">
         <ItemData ItemOID="SE.STUDYID" Value="CDISCPILOT01"/>
         <ItemData ItemOID="SE.DOMAIN" Value="SE"/>
         <ItemData ItemOID="SE.USUBJID" Value="01-703-1076"/>
         <ItemData ItemOID="SE.SESEQ" Value="6"/>
         <ItemData ItemOID="SE.ETCD" Value="FOLO"/>
         <ItemData ItemOID="SE.ELEMENT" Value="Follow_up"/>
         <ItemData ItemOID="SE.SESTDTC" Value="2013-12-24"/>
         <ItemData ItemOID="SE.SEENDTC" Value="2014-01-21"/>
      </ItemGroupData>
      <ItemGroupData data:ItemGroupDataSeq="135" ItemGroupOID="SE">
         <ItemData ItemOID="SE.STUDYID" Value="CDISCPILOT01"/>
         <ItemData ItemOID="SE.DOMAIN" Value="SE"/>
         <ItemData ItemOID="SE.USUBJID" Value="01-703-1086"/>
         <ItemData ItemOID="SE.SESEQ" Value="1"/>
         <ItemData ItemOID="SE.ETCD" Value="SCRN"/>
         <ItemData ItemOID="SE.ELEMENT" Value="Screen"/>
         <ItemData ItemOID="SE.SESTDTC" Value="2012-08-22"/>
         <ItemData ItemOID="SE.SEENDTC" Value="2012-09-02"/>
      </ItemGroupData>
      <ItemGroupData data:ItemGroupDataSeq="136" ItemGroupOID="SE">
         <ItemData ItemOID="SE.STUDYID" Value="CDISCPILOT01"/>
         <ItemData ItemOID="SE.DOMAIN" Value="SE"/>
         <ItemData ItemOID="SE.USUBJID" Value="01-703-1086"/>
         <ItemData ItemOID="SE.SESEQ" Value="4"/>
         <ItemData ItemOID="SE.ETCD" Value="LO"/>
         <ItemData ItemOID="SE.ELEMENT" Value="Low"/>
         <ItemData ItemOID="SE.SESTDTC" Value="2012-09-02"/>
         <ItemData ItemOID="SE.SEENDTC" Value="2012-12-24"/>
      </ItemGroupData>
      <ItemGroupData data:ItemGroupDataSeq="137" ItemGroupOID="SE">
         <ItemData ItemOID="SE.STUDYID" Value="CDISCPILOT01"/>
         <ItemData ItemOID="SE.DOMAIN" Value="SE"/>
         <ItemData ItemOID="SE.USUBJID" Value="01-703-1086"/>
         <ItemData ItemOID="SE.SESEQ" Value="6"/>
         <ItemData ItemOID="SE.ETCD" Value="FOLO"/>
         <ItemData ItemOID="SE.ELEMENT" Value="Follow_up"/>
         <ItemData ItemOID="SE.SESTDTC" Value="2012-12-24"/>
         <ItemData ItemOID="SE.SEENDTC" Value="2013-03-26"/>
      </ItemGroupData>
      <ItemGroupData data:ItemGroupDataSeq="138" ItemGroupOID="SE">
         <ItemData ItemOID="SE.STUDYID" Value="CDISCPILOT01"/>
         <ItemData ItemOID="SE.DOMAIN" Value="SE"/>
         <ItemData ItemOID="SE.USUBJID" Value="01-703-1096"/>
         <ItemData ItemOID="SE.SESEQ" Value="1"/>
         <ItemData ItemOID="SE.ETCD" Value="SCRN"/>
         <ItemData ItemOID="SE.ELEMENT" Value="Screen"/>
         <ItemData ItemOID="SE.SESTDTC" Value="2012-12-19"/>
         <ItemData ItemOID="SE.SEENDTC" Value="2013-01-25"/>
      </ItemGroupData>
      <ItemGroupData data:ItemGroupDataSeq="139" ItemGroupOID="SE">
         <ItemData ItemOID="SE.STUDYID" Value="CDISCPILOT01"/>
         <ItemData ItemOID="SE.DOMAIN" Value="SE"/>
         <ItemData ItemOID="SE.USUBJID" Value="01-703-1096"/>
         <ItemData ItemOID="SE.SESEQ" Value="4"/>
         <ItemData ItemOID="SE.ETCD" Value="PBO"/>
         <ItemData ItemOID="SE.ELEMENT" Value="Placebo"/>
         <ItemData ItemOID="SE.SESTDTC" Value="2013-01-25"/>
         <ItemData ItemOID="SE.SEENDTC" Value="2013-03-29"/>
      </ItemGroupData>
      <ItemGroupData data:ItemGroupDataSeq="140" ItemGroupOID="SE">
         <ItemData ItemOID="SE.STUDYID" Value="CDISCPILOT01"/>
         <ItemData ItemOID="SE.DOMAIN" Value="SE"/>
         <ItemData ItemOID="SE.USUBJID" Value="01-703-1100"/>
         <ItemData ItemOID="SE.SESEQ" Value="1"/>
         <ItemData ItemOID="SE.ETCD" Value="SCRN"/>
         <ItemData ItemOID="SE.ELEMENT" Value="Screen"/>
         <ItemData ItemOID="SE.SESTDTC" Value="2013-02-28"/>
         <ItemData ItemOID="SE.SEENDTC" Value="2013-03-13"/>
      </ItemGroupData>
      <ItemGroupData data:ItemGroupDataSeq="141" ItemGroupOID="SE">
         <ItemData ItemOID="SE.STUDYID" Value="CDISCPILOT01"/>
         <ItemData ItemOID="SE.DOMAIN" Value="SE"/>
         <ItemData ItemOID="SE.USUBJID" Value="01-703-1100"/>
         <ItemData ItemOID="SE.SESEQ" Value="4"/>
         <ItemData ItemOID="SE.ETCD" Value="PBO"/>
         <ItemData ItemOID="SE.ELEMENT" Value="Placebo"/>
         <ItemData ItemOID="SE.SESTDTC" Value="2013-03-13"/>
         <ItemData ItemOID="SE.SEENDTC" Value="2013-09-14"/>
      </ItemGroupData>
      <ItemGroupData data:ItemGroupDataSeq="142" ItemGroupOID="SE">
         <ItemData ItemOID="SE.STUDYID" Value="CDISCPILOT01"/>
         <ItemData ItemOID="SE.DOMAIN" Value="SE"/>
         <ItemData ItemOID="SE.USUBJID" Value="01-703-1119"/>
         <ItemData ItemOID="SE.SESEQ" Value="1"/>
         <ItemData ItemOID="SE.ETCD" Value="SCRN"/>
         <ItemData ItemOID="SE.ELEMENT" Value="Screen"/>
         <ItemData ItemOID="SE.SESTDTC" Value="2013-02-02"/>
         <ItemData ItemOID="SE.SEENDTC" Value="2013-02-20"/>
      </ItemGroupData>
      <ItemGroupData data:ItemGroupDataSeq="143" ItemGroupOID="SE">
         <ItemData ItemOID="SE.STUDYID" Value="CDISCPILOT01"/>
         <ItemData ItemOID="SE.DOMAIN" Value="SE"/>
         <ItemData ItemOID="SE.USUBJID" Value="01-703-1119"/>
         <ItemData ItemOID="SE.SESEQ" Value="4"/>
         <ItemData ItemOID="SE.ETCD" Value="LO"/>
         <ItemData ItemOID="SE.ELEMENT" Value="Low"/>
         <ItemData ItemOID="SE.SESTDTC" Value="2013-02-20"/>
         <ItemData ItemOID="SE.SEENDTC" Value="2013-06-13"/>
      </ItemGroupData>
      <ItemGroupData data:ItemGroupDataSeq="144" ItemGroupOID="SE">
         <ItemData ItemOID="SE.STUDYID" Value="CDISCPILOT01"/>
         <ItemData ItemOID="SE.DOMAIN" Value="SE"/>
         <ItemData ItemOID="SE.USUBJID" Value="01-703-1119"/>
         <ItemData ItemOID="SE.SESEQ" Value="6"/>
         <ItemData ItemOID="SE.ETCD" Value="FOLO"/>
         <ItemData ItemOID="SE.ELEMENT" Value="Follow_up"/>
         <ItemData ItemOID="SE.SESTDTC" Value="2013-06-13"/>
         <ItemData ItemOID="SE.SEENDTC" Value="2013-08-24"/>
      </ItemGroupData>
      <ItemGroupData data:ItemGroupDataSeq="145" ItemGroupOID="SE">
         <ItemData ItemOID="SE.STUDYID" Value="CDISCPILOT01"/>
         <ItemData ItemOID="SE.DOMAIN" Value="SE"/>
         <ItemData ItemOID="SE.USUBJID" Value="01-703-1175"/>
         <ItemData ItemOID="SE.SESEQ" Value="1"/>
         <ItemData ItemOID="SE.ETCD" Value="SCRN"/>
         <ItemData ItemOID="SE.ELEMENT" Value="Screen"/>
         <ItemData ItemOID="SE.SESTDTC" Value="2013-12-13"/>
         <ItemData ItemOID="SE.SEENDTC" Value="2013-12-20"/>
      </ItemGroupData>
      <ItemGroupData data:ItemGroupDataSeq="146" ItemGroupOID="SE">
         <ItemData ItemOID="SE.STUDYID" Value="CDISCPILOT01"/>
         <ItemData ItemOID="SE.DOMAIN" Value="SE"/>
         <ItemData ItemOID="SE.USUBJID" Value="01-703-1175"/>
         <ItemData ItemOID="SE.SESEQ" Value="4"/>
         <ItemData ItemOID="SE.ETCD" Value="PBO"/>
         <ItemData ItemOID="SE.ELEMENT" Value="Placebo"/>
         <ItemData ItemOID="SE.SESTDTC" Value="2013-12-20"/>
         <ItemData ItemOID="SE.SEENDTC" Value="2013-12-31"/>
      </ItemGroupData>
      <ItemGroupData data:ItemGroupDataSeq="147" ItemGroupOID="SE">
         <ItemData ItemOID="SE.STUDYID" Value="CDISCPILOT01"/>
         <ItemData ItemOID="SE.DOMAIN" Value="SE"/>
         <ItemData ItemOID="SE.USUBJID" Value="01-703-1175"/>
         <ItemData ItemOID="SE.SESEQ" Value="6"/>
         <ItemData ItemOID="SE.ETCD" Value="FOLO"/>
         <ItemData ItemOID="SE.ELEMENT" Value="Follow_up"/>
         <ItemData ItemOID="SE.SESTDTC" Value="2013-12-31"/>
         <ItemData ItemOID="SE.SEENDTC" Value="2013-12-31"/>
      </ItemGroupData>
      <ItemGroupData data:ItemGroupDataSeq="148" ItemGroupOID="SE">
         <ItemData ItemOID="SE.STUDYID" Value="CDISCPILOT01"/>
         <ItemData ItemOID="SE.DOMAIN" Value="SE"/>
         <ItemData ItemOID="SE.USUBJID" Value="01-703-1182"/>
         <ItemData ItemOID="SE.SESEQ" Value="1"/>
         <ItemData ItemOID="SE.ETCD" Value="SCRN"/>
         <ItemData ItemOID="SE.ELEMENT" Value="Screen"/>
         <ItemData ItemOID="SE.SESTDTC" Value="2013-10-08"/>
         <ItemData ItemOID="SE.SEENDTC" Value="2013-10-17"/>
      </ItemGroupData>
      <ItemGroupData data:ItemGroupDataSeq="149" ItemGroupOID="SE">
         <ItemData ItemOID="SE.STUDYID" Value="CDISCPILOT01"/>
         <ItemData ItemOID="SE.DOMAIN" Value="SE"/>
         <ItemData ItemOID="SE.USUBJID" Value="01-703-1182"/>
         <ItemData ItemOID="SE.SESEQ" Value="4"/>
         <ItemData ItemOID="SE.ETCD" Value="LO"/>
         <ItemData ItemOID="SE.ELEMENT" Value="Low"/>
         <ItemData ItemOID="SE.SESTDTC" Value="2013-10-17"/>
         <ItemData ItemOID="SE.SEENDTC" Value="2013-12-12"/>
      </ItemGroupData>
      <ItemGroupData data:ItemGroupDataSeq="150" ItemGroupOID="SE">
         <ItemData ItemOID="SE.STUDYID" Value="CDISCPILOT01"/>
         <ItemData ItemOID="SE.DOMAIN" Value="SE"/>
         <ItemData ItemOID="SE.USUBJID" Value="01-703-1182"/>
         <ItemData ItemOID="SE.SESEQ" Value="6"/>
         <ItemData ItemOID="SE.ETCD" Value="FOLO"/>
         <ItemData ItemOID="SE.ELEMENT" Value="Follow_up"/>
         <ItemData ItemOID="SE.SESTDTC" Value="2013-12-12"/>
         <ItemData ItemOID="SE.SEENDTC" Value="2014-01-14"/>
      </ItemGroupData>
      <ItemGroupData data:ItemGroupDataSeq="151" ItemGroupOID="SE">
         <ItemData ItemOID="SE.STUDYID" Value="CDISCPILOT01"/>
         <ItemData ItemOID="SE.DOMAIN" Value="SE"/>
         <ItemData ItemOID="SE.USUBJID" Value="01-703-1197"/>
         <ItemData ItemOID="SE.SESEQ" Value="1"/>
         <ItemData ItemOID="SE.ETCD" Value="SCRN"/>
         <ItemData ItemOID="SE.ELEMENT" Value="Screen"/>
         <ItemData ItemOID="SE.SESTDTC" Value="2013-06-01"/>
         <ItemData ItemOID="SE.SEENDTC" Value="2013-06-16"/>
      </ItemGroupData>
      <ItemGroupData data:ItemGroupDataSeq="152" ItemGroupOID="SE">
         <ItemData ItemOID="SE.STUDYID" Value="CDISCPILOT01"/>
         <ItemData ItemOID="SE.DOMAIN" Value="SE"/>
         <ItemData ItemOID="SE.USUBJID" Value="01-703-1197"/>
         <ItemData ItemOID="SE.SESEQ" Value="4"/>
         <ItemData ItemOID="SE.ETCD" Value="LO"/>
         <ItemData ItemOID="SE.ELEMENT" Value="Low"/>
         <ItemData ItemOID="SE.SESTDTC" Value="2013-06-16"/>
         <ItemData ItemOID="SE.SEENDTC" Value="2013-07-22"/>
      </ItemGroupData>
      <ItemGroupData data:ItemGroupDataSeq="153" ItemGroupOID="SE">
         <ItemData ItemOID="SE.STUDYID" Value="CDISCPILOT01"/>
         <ItemData ItemOID="SE.DOMAIN" Value="SE"/>
         <ItemData ItemOID="SE.USUBJID" Value="01-703-1210"/>
         <ItemData ItemOID="SE.SESEQ" Value="1"/>
         <ItemData ItemOID="SE.ETCD" Value="SCRN"/>
         <ItemData ItemOID="SE.ELEMENT" Value="Screen"/>
         <ItemData ItemOID="SE.SESTDTC" Value="2013-03-08"/>
         <ItemData ItemOID="SE.SEENDTC" Value="2013-03-16"/>
      </ItemGroupData>
      <ItemGroupData data:ItemGroupDataSeq="154" ItemGroupOID="SE">
         <ItemData ItemOID="SE.STUDYID" Value="CDISCPILOT01"/>
         <ItemData ItemOID="SE.DOMAIN" Value="SE"/>
         <ItemData ItemOID="SE.USUBJID" Value="01-703-1210"/>
         <ItemData ItemOID="SE.SESEQ" Value="4"/>
         <ItemData ItemOID="SE.ETCD" Value="PBO"/>
         <ItemData ItemOID="SE.ELEMENT" Value="Placebo"/>
         <ItemData ItemOID="SE.SESTDTC" Value="2013-03-16"/>
         <ItemData ItemOID="SE.SEENDTC" Value="2013-09-06"/>
      </ItemGroupData>
      <ItemGroupData data:ItemGroupDataSeq="155" ItemGroupOID="SE">
         <ItemData ItemOID="SE.STUDYID" Value="CDISCPILOT01"/>
         <ItemData ItemOID="SE.DOMAIN" Value="SE"/>
         <ItemData ItemOID="SE.USUBJID" Value="01-703-1258"/>
         <ItemData ItemOID="SE.SESEQ" Value="1"/>
         <ItemData ItemOID="SE.ETCD" Value="SCRN"/>
         <ItemData ItemOID="SE.ELEMENT" Value="Screen"/>
         <ItemData ItemOID="SE.SESTDTC" Value="2012-07-10"/>
         <ItemData ItemOID="SE.SEENDTC" Value="2012-07-20"/>
      </ItemGroupData>
      <ItemGroupData data:ItemGroupDataSeq="156" ItemGroupOID="SE">
         <ItemData ItemOID="SE.STUDYID" Value="CDISCPILOT01"/>
         <ItemData ItemOID="SE.DOMAIN" Value="SE"/>
         <ItemData ItemOID="SE.USUBJID" Value="01-703-1258"/>
         <ItemData ItemOID="SE.SESEQ" Value="3"/>
         <ItemData ItemOID="SE.ETCD" Value="HIS"/>
         <ItemData ItemOID="SE.ELEMENT" Value="High_Start"/>
         <ItemData ItemOID="SE.SESTDTC" Value="2012-07-20"/>
         <ItemData ItemOID="SE.SEENDTC" Value="2012-08-01"/>
      </ItemGroupData>
      <ItemGroupData data:ItemGroupDataSeq="157" ItemGroupOID="SE">
         <ItemData ItemOID="SE.STUDYID" Value="CDISCPILOT01"/>
         <ItemData ItemOID="SE.DOMAIN" Value="SE"/>
         <ItemData ItemOID="SE.USUBJID" Value="01-703-1258"/>
         <ItemData ItemOID="SE.SESEQ" Value="4"/>
         <ItemData ItemOID="SE.ETCD" Value="HIM"/>
         <ItemData ItemOID="SE.ELEMENT" Value="High_Middle"/>
         <ItemData ItemOID="SE.SESTDTC" Value="2012-08-01"/>
         <ItemData ItemOID="SE.SEENDTC" Value="2012-12-31"/>
      </ItemGroupData>
      <ItemGroupData data:ItemGroupDataSeq="158" ItemGroupOID="SE">
         <ItemData ItemOID="SE.STUDYID" Value="CDISCPILOT01"/>
         <ItemData ItemOID="SE.DOMAIN" Value="SE"/>
         <ItemData ItemOID="SE.USUBJID" Value="01-703-1258"/>
         <ItemData ItemOID="SE.SESEQ" Value="5"/>
         <ItemData ItemOID="SE.ETCD" Value="HIE"/>
         <ItemData ItemOID="SE.ELEMENT" Value="High_End"/>
         <ItemData ItemOID="SE.SESTDTC" Value="2012-12-31"/>
         <ItemData ItemOID="SE.SEENDTC" Value="2013-01-21"/>
      </ItemGroupData>
      <ItemGroupData data:ItemGroupDataSeq="159" ItemGroupOID="SE">
         <ItemData ItemOID="SE.STUDYID" Value="CDISCPILOT01"/>
         <ItemData ItemOID="SE.DOMAIN" Value="SE"/>
         <ItemData ItemOID="SE.USUBJID" Value="01-703-1258"/>
         <ItemData ItemOID="SE.SESEQ" Value="6"/>
         <ItemData ItemOID="SE.ETCD" Value="FOLO"/>
         <ItemData ItemOID="SE.ELEMENT" Value="Follow_up"/>
         <ItemData ItemOID="SE.SESTDTC" Value="2013-01-21"/>
         <ItemData ItemOID="SE.SEENDTC" Value="2013-01-28"/>
      </ItemGroupData>
      <ItemGroupData data:ItemGroupDataSeq="160" ItemGroupOID="SE">
         <ItemData ItemOID="SE.STUDYID" Value="CDISCPILOT01"/>
         <ItemData ItemOID="SE.DOMAIN" Value="SE"/>
         <ItemData ItemOID="SE.USUBJID" Value="01-703-1279"/>
         <ItemData ItemOID="SE.SESEQ" Value="1"/>
         <ItemData ItemOID="SE.ETCD" Value="SCRN"/>
         <ItemData ItemOID="SE.ELEMENT" Value="Screen"/>
         <ItemData ItemOID="SE.SESTDTC" Value="2013-04-27"/>
         <ItemData ItemOID="SE.SEENDTC" Value="2013-05-13"/>
      </ItemGroupData>
      <ItemGroupData data:ItemGroupDataSeq="161" ItemGroupOID="SE">
         <ItemData ItemOID="SE.STUDYID" Value="CDISCPILOT01"/>
         <ItemData ItemOID="SE.DOMAIN" Value="SE"/>
         <ItemData ItemOID="SE.USUBJID" Value="01-703-1279"/>
         <ItemData ItemOID="SE.SESEQ" Value="4"/>
         <ItemData ItemOID="SE.ETCD" Value="LO"/>
         <ItemData ItemOID="SE.ELEMENT" Value="Low"/>
         <ItemData ItemOID="SE.SESTDTC" Value="2013-05-13"/>
         <ItemData ItemOID="SE.SEENDTC" Value="2013-06-22"/>
      </ItemGroupData>
      <ItemGroupData data:ItemGroupDataSeq="162" ItemGroupOID="SE">
         <ItemData ItemOID="SE.STUDYID" Value="CDISCPILOT01"/>
         <ItemData ItemOID="SE.DOMAIN" Value="SE"/>
         <ItemData ItemOID="SE.USUBJID" Value="01-703-1295"/>
         <ItemData ItemOID="SE.SESEQ" Value="1"/>
         <ItemData ItemOID="SE.ETCD" Value="SCRN"/>
         <ItemData ItemOID="SE.ELEMENT" Value="Screen"/>
         <ItemData ItemOID="SE.SESTDTC" Value="2013-10-24"/>
         <ItemData ItemOID="SE.SEENDTC" Value="2013-11-21"/>
      </ItemGroupData>
      <ItemGroupData data:ItemGroupDataSeq="163" ItemGroupOID="SE">
         <ItemData ItemOID="SE.STUDYID" Value="CDISCPILOT01"/>
         <ItemData ItemOID="SE.DOMAIN" Value="SE"/>
         <ItemData ItemOID="SE.USUBJID" Value="01-703-1295"/>
         <ItemData ItemOID="SE.SESEQ" Value="3"/>
         <ItemData ItemOID="SE.ETCD" Value="HIS"/>
         <ItemData ItemOID="SE.ELEMENT" Value="High_Start"/>
         <ItemData ItemOID="SE.SESTDTC" Value="2013-11-21"/>
         <ItemData ItemOID="SE.SEENDTC" Value="2013-12-05"/>
      </ItemGroupData>
      <ItemGroupData data:ItemGroupDataSeq="164" ItemGroupOID="SE">
         <ItemData ItemOID="SE.STUDYID" Value="CDISCPILOT01"/>
         <ItemData ItemOID="SE.DOMAIN" Value="SE"/>
         <ItemData ItemOID="SE.USUBJID" Value="01-703-1295"/>
         <ItemData ItemOID="SE.SESEQ" Value="4"/>
         <ItemData ItemOID="SE.ETCD" Value="HIM"/>
         <ItemData ItemOID="SE.ELEMENT" Value="High_Middle"/>
         <ItemData ItemOID="SE.SESTDTC" Value="2013-12-05"/>
         <ItemData ItemOID="SE.SEENDTC" Value="2014-05-19"/>
      </ItemGroupData>
      <ItemGroupData data:ItemGroupDataSeq="165" ItemGroupOID="SE">
         <ItemData ItemOID="SE.STUDYID" Value="CDISCPILOT01"/>
         <ItemData ItemOID="SE.DOMAIN" Value="SE"/>
         <ItemData ItemOID="SE.USUBJID" Value="01-703-1299"/>
         <ItemData ItemOID="SE.SESEQ" Value="1"/>
         <ItemData ItemOID="SE.ETCD" Value="SCRN"/>
         <ItemData ItemOID="SE.ELEMENT" Value="Screen"/>
         <ItemData ItemOID="SE.SESTDTC" Value="2012-09-07"/>
         <ItemData ItemOID="SE.SEENDTC" Value="2012-09-12"/>
      </ItemGroupData>
      <ItemGroupData data:ItemGroupDataSeq="166" ItemGroupOID="SE">
         <ItemData ItemOID="SE.STUDYID" Value="CDISCPILOT01"/>
         <ItemData ItemOID="SE.DOMAIN" Value="SE"/>
         <ItemData ItemOID="SE.USUBJID" Value="01-703-1299"/>
         <ItemData ItemOID="SE.SESEQ" Value="4"/>
         <ItemData ItemOID="SE.ETCD" Value="PBO"/>
         <ItemData ItemOID="SE.ELEMENT" Value="Placebo"/>
         <ItemData ItemOID="SE.SESTDTC" Value="2012-09-12"/>
         <ItemData ItemOID="SE.SEENDTC" Value="2013-03-27"/>
      </ItemGroupData>
      <ItemGroupData data:ItemGroupDataSeq="167" ItemGroupOID="SE">
         <ItemData ItemOID="SE.STUDYID" Value="CDISCPILOT01"/>
         <ItemData ItemOID="SE.DOMAIN" Value="SE"/>
         <ItemData ItemOID="SE.USUBJID" Value="01-703-1335"/>
         <ItemData ItemOID="SE.SESEQ" Value="1"/>
         <ItemData ItemOID="SE.ETCD" Value="SCRN"/>
         <ItemData ItemOID="SE.ELEMENT" Value="Screen"/>
         <ItemData ItemOID="SE.SESTDTC" Value="2014-02-28"/>
         <ItemData ItemOID="SE.SEENDTC" Value="2014-03-17"/>
      </ItemGroupData>
      <ItemGroupData data:ItemGroupDataSeq="168" ItemGroupOID="SE">
         <ItemData ItemOID="SE.STUDYID" Value="CDISCPILOT01"/>
         <ItemData ItemOID="SE.DOMAIN" Value="SE"/>
         <ItemData ItemOID="SE.USUBJID" Value="01-703-1335"/>
         <ItemData ItemOID="SE.SESEQ" Value="3"/>
         <ItemData ItemOID="SE.ETCD" Value="HIS"/>
         <ItemData ItemOID="SE.ELEMENT" Value="High_Start"/>
         <ItemData ItemOID="SE.SESTDTC" Value="2014-03-17"/>
         <ItemData ItemOID="SE.SEENDTC" Value="2014-03-31"/>
      </ItemGroupData>
      <ItemGroupData data:ItemGroupDataSeq="169" ItemGroupOID="SE">
         <ItemData ItemOID="SE.STUDYID" Value="CDISCPILOT01"/>
         <ItemData ItemOID="SE.DOMAIN" Value="SE"/>
         <ItemData ItemOID="SE.USUBJID" Value="01-703-1335"/>
         <ItemData ItemOID="SE.SESEQ" Value="4"/>
         <ItemData ItemOID="SE.ETCD" Value="HIM"/>
         <ItemData ItemOID="SE.ELEMENT" Value="High_Middle"/>
         <ItemData ItemOID="SE.SESTDTC" Value="2014-03-31"/>
         <ItemData ItemOID="SE.SEENDTC" Value="2014-05-24"/>
      </ItemGroupData>
      <ItemGroupData data:ItemGroupDataSeq="170" ItemGroupOID="SE">
         <ItemData ItemOID="SE.STUDYID" Value="CDISCPILOT01"/>
         <ItemData ItemOID="SE.DOMAIN" Value="SE"/>
         <ItemData ItemOID="SE.USUBJID" Value="01-703-1379"/>
         <ItemData ItemOID="SE.SESEQ" Value="1"/>
         <ItemData ItemOID="SE.ETCD" Value="SCRN"/>
         <ItemData ItemOID="SE.ELEMENT" Value="Screen"/>
         <ItemData ItemOID="SE.SESTDTC" Value="2013-09-12"/>
         <ItemData ItemOID="SE.SEENDTC" Value="2013-09-22"/>
      </ItemGroupData>
      <ItemGroupData data:ItemGroupDataSeq="171" ItemGroupOID="SE">
         <ItemData ItemOID="SE.STUDYID" Value="CDISCPILOT01"/>
         <ItemData ItemOID="SE.DOMAIN" Value="SE"/>
         <ItemData ItemOID="SE.USUBJID" Value="01-703-1379"/>
         <ItemData ItemOID="SE.SESEQ" Value="4"/>
         <ItemData ItemOID="SE.ETCD" Value="LO"/>
         <ItemData ItemOID="SE.ELEMENT" Value="Low"/>
         <ItemData ItemOID="SE.SESTDTC" Value="2013-09-22"/>
         <ItemData ItemOID="SE.SEENDTC" Value="2014-03-21"/>
      </ItemGroupData>
      <ItemGroupData data:ItemGroupDataSeq="172" ItemGroupOID="SE">
         <ItemData ItemOID="SE.STUDYID" Value="CDISCPILOT01"/>
         <ItemData ItemOID="SE.DOMAIN" Value="SE"/>
         <ItemData ItemOID="SE.USUBJID" Value="01-703-1396"/>
         <ItemData ItemOID="SE.SESEQ" Value="1"/>
         <ItemData ItemOID="SE.ETCD" Value="SCRN"/>
         <ItemData ItemOID="SE.ELEMENT" Value="Screen"/>
         <ItemData ItemOID="SE.SESTDTC" Value="2014-02-09"/>
         <ItemData ItemOID="SE.SEENDTC" Value="2014-02-27"/>
      </ItemGroupData>
      <ItemGroupData data:ItemGroupDataSeq="173" ItemGroupOID="SE">
         <ItemData ItemOID="SE.STUDYID" Value="CDISCPILOT01"/>
         <ItemData ItemOID="SE.DOMAIN" Value="SE"/>
         <ItemData ItemOID="SE.USUBJID" Value="01-703-1403"/>
         <ItemData ItemOID="SE.SESEQ" Value="1"/>
         <ItemData ItemOID="SE.ETCD" Value="SCRN"/>
         <ItemData ItemOID="SE.ELEMENT" Value="Screen"/>
         <ItemData ItemOID="SE.SESTDTC" Value="2012-12-05"/>
         <ItemData ItemOID="SE.SEENDTC" Value="2012-12-12"/>
      </ItemGroupData>
      <ItemGroupData data:ItemGroupDataSeq="174" ItemGroupOID="SE">
         <ItemData ItemOID="SE.STUDYID" Value="CDISCPILOT01"/>
         <ItemData ItemOID="SE.DOMAIN" Value="SE"/>
         <ItemData ItemOID="SE.USUBJID" Value="01-703-1403"/>
         <ItemData ItemOID="SE.SESEQ" Value="3"/>
         <ItemData ItemOID="SE.ETCD" Value="HIS"/>
         <ItemData ItemOID="SE.ELEMENT" Value="High_Start"/>
         <ItemData ItemOID="SE.SESTDTC" Value="2012-12-12"/>
         <ItemData ItemOID="SE.SEENDTC" Value="2012-12-19"/>
      </ItemGroupData>
      <ItemGroupData data:ItemGroupDataSeq="175" ItemGroupOID="SE">
         <ItemData ItemOID="SE.STUDYID" Value="CDISCPILOT01"/>
         <ItemData ItemOID="SE.DOMAIN" Value="SE"/>
         <ItemData ItemOID="SE.USUBJID" Value="01-703-1403"/>
         <ItemData ItemOID="SE.SESEQ" Value="6"/>
         <ItemData ItemOID="SE.ETCD" Value="FOLO"/>
         <ItemData ItemOID="SE.ELEMENT" Value="Follow_up"/>
         <ItemData ItemOID="SE.SESTDTC" Value="2012-12-19"/>
         <ItemData ItemOID="SE.SEENDTC" Value="2013-01-08"/>
      </ItemGroupData>
      <ItemGroupData data:ItemGroupDataSeq="176" ItemGroupOID="SE">
         <ItemData ItemOID="SE.STUDYID" Value="CDISCPILOT01"/>
         <ItemData ItemOID="SE.DOMAIN" Value="SE"/>
         <ItemData ItemOID="SE.USUBJID" Value="01-703-1439"/>
         <ItemData ItemOID="SE.SESEQ" Value="1"/>
         <ItemData ItemOID="SE.ETCD" Value="SCRN"/>
         <ItemData ItemOID="SE.ELEMENT" Value="Screen"/>
         <ItemData ItemOID="SE.SESTDTC" Value="2014-03-04"/>
         <ItemData ItemOID="SE.SEENDTC" Value="2014-03-12"/>
      </ItemGroupData>
      <ItemGroupData data:ItemGroupDataSeq="177" ItemGroupOID="SE">
         <ItemData ItemOID="SE.STUDYID" Value="CDISCPILOT01"/>
         <ItemData ItemOID="SE.DOMAIN" Value="SE"/>
         <ItemData ItemOID="SE.USUBJID" Value="01-703-1439"/>
         <ItemData ItemOID="SE.SESEQ" Value="3"/>
         <ItemData ItemOID="SE.ETCD" Value="HIS"/>
         <ItemData ItemOID="SE.ELEMENT" Value="High_Start"/>
         <ItemData ItemOID="SE.SESTDTC" Value="2014-03-12"/>
         <ItemData ItemOID="SE.SEENDTC" Value="2014-03-26"/>
      </ItemGroupData>
      <ItemGroupData data:ItemGroupDataSeq="178" ItemGroupOID="SE">
         <ItemData ItemOID="SE.STUDYID" Value="CDISCPILOT01"/>
         <ItemData ItemOID="SE.DOMAIN" Value="SE"/>
         <ItemData ItemOID="SE.USUBJID" Value="01-703-1439"/>
         <ItemData ItemOID="SE.SESEQ" Value="4"/>
         <ItemData ItemOID="SE.ETCD" Value="HIM"/>
         <ItemData ItemOID="SE.ELEMENT" Value="High_Middle"/>
         <ItemData ItemOID="SE.SESTDTC" Value="2014-03-26"/>
         <ItemData ItemOID="SE.SEENDTC" Value="2014-08-28"/>
      </ItemGroupData>
      <ItemGroupData data:ItemGroupDataSeq="179" ItemGroupOID="SE">
         <ItemData ItemOID="SE.STUDYID" Value="CDISCPILOT01"/>
         <ItemData ItemOID="SE.DOMAIN" Value="SE"/>
         <ItemData ItemOID="SE.USUBJID" Value="01-703-1439"/>
         <ItemData ItemOID="SE.SESEQ" Value="5"/>
         <ItemData ItemOID="SE.ETCD" Value="HIE"/>
         <ItemData ItemOID="SE.ELEMENT" Value="High_End"/>
         <ItemData ItemOID="SE.SESTDTC" Value="2014-08-28"/>
         <ItemData ItemOID="SE.SEENDTC" Value="2014-09-11"/>
      </ItemGroupData>
      <ItemGroupData data:ItemGroupDataSeq="180" ItemGroupOID="SE">
         <ItemData ItemOID="SE.STUDYID" Value="CDISCPILOT01"/>
         <ItemData ItemOID="SE.DOMAIN" Value="SE"/>
         <ItemData ItemOID="SE.USUBJID" Value="01-704-1008"/>
         <ItemData ItemOID="SE.SESEQ" Value="1"/>
         <ItemData ItemOID="SE.ETCD" Value="SCRN"/>
         <ItemData ItemOID="SE.ELEMENT" Value="Screen"/>
         <ItemData ItemOID="SE.SESTDTC" Value="2013-01-06"/>
         <ItemData ItemOID="SE.SEENDTC" Value="2013-01-13"/>
      </ItemGroupData>
      <ItemGroupData data:ItemGroupDataSeq="181" ItemGroupOID="SE">
         <ItemData ItemOID="SE.STUDYID" Value="CDISCPILOT01"/>
         <ItemData ItemOID="SE.DOMAIN" Value="SE"/>
         <ItemData ItemOID="SE.USUBJID" Value="01-704-1008"/>
         <ItemData ItemOID="SE.SESEQ" Value="3"/>
         <ItemData ItemOID="SE.ETCD" Value="HIS"/>
         <ItemData ItemOID="SE.ELEMENT" Value="High_Start"/>
         <ItemData ItemOID="SE.SESTDTC" Value="2013-01-13"/>
         <ItemData ItemOID="SE.SEENDTC" Value="2013-01-28"/>
      </ItemGroupData>
      <ItemGroupData data:ItemGroupDataSeq="182" ItemGroupOID="SE">
         <ItemData ItemOID="SE.STUDYID" Value="CDISCPILOT01"/>
         <ItemData ItemOID="SE.DOMAIN" Value="SE"/>
         <ItemData ItemOID="SE.USUBJID" Value="01-704-1008"/>
         <ItemData ItemOID="SE.SESEQ" Value="4"/>
         <ItemData ItemOID="SE.ETCD" Value="HIM"/>
         <ItemData ItemOID="SE.ELEMENT" Value="High_Middle"/>
         <ItemData ItemOID="SE.SESTDTC" Value="2013-01-28"/>
         <ItemData ItemOID="SE.SEENDTC" Value="2013-02-25"/>
      </ItemGroupData>
      <ItemGroupData data:ItemGroupDataSeq="183" ItemGroupOID="SE">
         <ItemData ItemOID="SE.STUDYID" Value="CDISCPILOT01"/>
         <ItemData ItemOID="SE.DOMAIN" Value="SE"/>
         <ItemData ItemOID="SE.USUBJID" Value="01-704-1009"/>
         <ItemData ItemOID="SE.SESEQ" Value="1"/>
         <ItemData ItemOID="SE.ETCD" Value="SCRN"/>
         <ItemData ItemOID="SE.ELEMENT" Value="Screen"/>
         <ItemData ItemOID="SE.SESTDTC" Value="2013-08-20"/>
         <ItemData ItemOID="SE.SEENDTC" Value="2013-08-27"/>
      </ItemGroupData>
      <ItemGroupData data:ItemGroupDataSeq="184" ItemGroupOID="SE">
         <ItemData ItemOID="SE.STUDYID" Value="CDISCPILOT01"/>
         <ItemData ItemOID="SE.DOMAIN" Value="SE"/>
         <ItemData ItemOID="SE.USUBJID" Value="01-704-1009"/>
         <ItemData ItemOID="SE.SESEQ" Value="4"/>
         <ItemData ItemOID="SE.ETCD" Value="LO"/>
         <ItemData ItemOID="SE.ELEMENT" Value="Low"/>
         <ItemData ItemOID="SE.SESTDTC" Value="2013-08-27"/>
         <ItemData ItemOID="SE.SEENDTC" Value="2013-10-02"/>
      </ItemGroupData>
      <ItemGroupData data:ItemGroupDataSeq="185" ItemGroupOID="SE">
         <ItemData ItemOID="SE.STUDYID" Value="CDISCPILOT01"/>
         <ItemData ItemOID="SE.DOMAIN" Value="SE"/>
         <ItemData ItemOID="SE.USUBJID" Value="01-704-1010"/>
         <ItemData ItemOID="SE.SESEQ" Value="1"/>
         <ItemData ItemOID="SE.ETCD" Value="SCRN"/>
         <ItemData ItemOID="SE.ELEMENT" Value="Screen"/>
         <ItemData ItemOID="SE.SESTDTC" Value="2014-02-08"/>
         <ItemData ItemOID="SE.SEENDTC" Value="2014-02-21"/>
      </ItemGroupData>
      <ItemGroupData data:ItemGroupDataSeq="186" ItemGroupOID="SE">
         <ItemData ItemOID="SE.STUDYID" Value="CDISCPILOT01"/>
         <ItemData ItemOID="SE.DOMAIN" Value="SE"/>
         <ItemData ItemOID="SE.USUBJID" Value="01-704-1010"/>
         <ItemData ItemOID="SE.SESEQ" Value="4"/>
         <ItemData ItemOID="SE.ETCD" Value="PBO"/>
         <ItemData ItemOID="SE.ELEMENT" Value="Placebo"/>
         <ItemData ItemOID="SE.SESTDTC" Value="2014-02-21"/>
         <ItemData ItemOID="SE.SEENDTC" Value="2014-07-09"/>
      </ItemGroupData>
      <ItemGroupData data:ItemGroupDataSeq="187" ItemGroupOID="SE">
         <ItemData ItemOID="SE.STUDYID" Value="CDISCPILOT01"/>
         <ItemData ItemOID="SE.DOMAIN" Value="SE"/>
         <ItemData ItemOID="SE.USUBJID" Value="01-704-1017"/>
         <ItemData ItemOID="SE.SESEQ" Value="1"/>
         <ItemData ItemOID="SE.ETCD" Value="SCRN"/>
         <ItemData ItemOID="SE.ELEMENT" Value="Screen"/>
         <ItemData ItemOID="SE.SESTDTC" Value="2013-09-20"/>
         <ItemData ItemOID="SE.SEENDTC" Value="2013-10-06"/>
      </ItemGroupData>
      <ItemGroupData data:ItemGroupDataSeq="188" ItemGroupOID="SE">
         <ItemData ItemOID="SE.STUDYID" Value="CDISCPILOT01"/>
         <ItemData ItemOID="SE.DOMAIN" Value="SE"/>
         <ItemData ItemOID="SE.USUBJID" Value="01-704-1017"/>
         <ItemData ItemOID="SE.SESEQ" Value="3"/>
         <ItemData ItemOID="SE.ETCD" Value="HIS"/>
         <ItemData ItemOID="SE.ELEMENT" Value="High_Start"/>
         <ItemData ItemOID="SE.SESTDTC" Value="2013-10-06"/>
         <ItemData ItemOID="SE.SEENDTC" Value="2013-10-19"/>
      </ItemGroupData>
      <ItemGroupData data:ItemGroupDataSeq="189" ItemGroupOID="SE">
         <ItemData ItemOID="SE.STUDYID" Value="CDISCPILOT01"/>
         <ItemData ItemOID="SE.DOMAIN" Value="SE"/>
         <ItemData ItemOID="SE.USUBJID" Value="01-704-1017"/>
         <ItemData ItemOID="SE.SESEQ" Value="4"/>
         <ItemData ItemOID="SE.ETCD" Value="HIM"/>
         <ItemData ItemOID="SE.ELEMENT" Value="High_Middle"/>
         <ItemData ItemOID="SE.SESTDTC" Value="2013-10-19"/>
         <ItemData ItemOID="SE.SEENDTC" Value="2013-11-24"/>
      </ItemGroupData>
      <ItemGroupData data:ItemGroupDataSeq="190" ItemGroupOID="SE">
         <ItemData ItemOID="SE.STUDYID" Value="CDISCPILOT01"/>
         <ItemData ItemOID="SE.DOMAIN" Value="SE"/>
         <ItemData ItemOID="SE.USUBJID" Value="01-704-1017"/>
         <ItemData ItemOID="SE.SESEQ" Value="6"/>
         <ItemData ItemOID="SE.ETCD" Value="FOLO"/>
         <ItemData ItemOID="SE.ELEMENT" Value="Follow_up"/>
         <ItemData ItemOID="SE.SESTDTC" Value="2013-11-24"/>
         <ItemData ItemOID="SE.SEENDTC" Value="2013-12-06"/>
      </ItemGroupData>
      <ItemGroupData data:ItemGroupDataSeq="191" ItemGroupOID="SE">
         <ItemData ItemOID="SE.STUDYID" Value="CDISCPILOT01"/>
         <ItemData ItemOID="SE.DOMAIN" Value="SE"/>
         <ItemData ItemOID="SE.USUBJID" Value="01-704-1025"/>
         <ItemData ItemOID="SE.SESEQ" Value="1"/>
         <ItemData ItemOID="SE.ETCD" Value="SCRN"/>
         <ItemData ItemOID="SE.ELEMENT" Value="Screen"/>
         <ItemData ItemOID="SE.SESTDTC" Value="2013-09-18"/>
         <ItemData ItemOID="SE.SEENDTC" Value="2013-09-27"/>
      </ItemGroupData>
      <ItemGroupData data:ItemGroupDataSeq="192" ItemGroupOID="SE">
         <ItemData ItemOID="SE.STUDYID" Value="CDISCPILOT01"/>
         <ItemData ItemOID="SE.DOMAIN" Value="SE"/>
         <ItemData ItemOID="SE.USUBJID" Value="01-704-1025"/>
         <ItemData ItemOID="SE.SESEQ" Value="4"/>
         <ItemData ItemOID="SE.ETCD" Value="LO"/>
         <ItemData ItemOID="SE.ELEMENT" Value="Low"/>
         <ItemData ItemOID="SE.SESTDTC" Value="2013-09-27"/>
         <ItemData ItemOID="SE.SEENDTC" Value="2013-11-29"/>
      </ItemGroupData>
      <ItemGroupData data:ItemGroupDataSeq="193" ItemGroupOID="SE">
         <ItemData ItemOID="SE.STUDYID" Value="CDISCPILOT01"/>
         <ItemData ItemOID="SE.DOMAIN" Value="SE"/>
         <ItemData ItemOID="SE.USUBJID" Value="01-704-1065"/>
         <ItemData ItemOID="SE.SESEQ" Value="1"/>
         <ItemData ItemOID="SE.ETCD" Value="SCRN"/>
         <ItemData ItemOID="SE.ELEMENT" Value="Screen"/>
         <ItemData ItemOID="SE.SESTDTC" Value="2013-10-17"/>
         <ItemData ItemOID="SE.SEENDTC" Value="2013-10-24"/>
      </ItemGroupData>
      <ItemGroupData data:ItemGroupDataSeq="194" ItemGroupOID="SE">
         <ItemData ItemOID="SE.STUDYID" Value="CDISCPILOT01"/>
         <ItemData ItemOID="SE.DOMAIN" Value="SE"/>
         <ItemData ItemOID="SE.USUBJID" Value="01-704-1065"/>
         <ItemData ItemOID="SE.SESEQ" Value="3"/>
         <ItemData ItemOID="SE.ETCD" Value="HIS"/>
         <ItemData ItemOID="SE.ELEMENT" Value="High_Start"/>
         <ItemData ItemOID="SE.SESTDTC" Value="2013-10-24"/>
         <ItemData ItemOID="SE.SEENDTC" Value="2013-11-07"/>
      </ItemGroupData>
      <ItemGroupData data:ItemGroupDataSeq="195" ItemGroupOID="SE">
         <ItemData ItemOID="SE.STUDYID" Value="CDISCPILOT01"/>
         <ItemData ItemOID="SE.DOMAIN" Value="SE"/>
         <ItemData ItemOID="SE.USUBJID" Value="01-704-1065"/>
         <ItemData ItemOID="SE.SESEQ" Value="4"/>
         <ItemData ItemOID="SE.ETCD" Value="HIM"/>
         <ItemData ItemOID="SE.ELEMENT" Value="High_Middle"/>
         <ItemData ItemOID="SE.SESTDTC" Value="2013-11-07"/>
         <ItemData ItemOID="SE.SEENDTC" Value="2013-12-24"/>
      </ItemGroupData>
      <ItemGroupData data:ItemGroupDataSeq="196" ItemGroupOID="SE">
         <ItemData ItemOID="SE.STUDYID" Value="CDISCPILOT01"/>
         <ItemData ItemOID="SE.DOMAIN" Value="SE"/>
         <ItemData ItemOID="SE.USUBJID" Value="01-704-1065"/>
         <ItemData ItemOID="SE.SESEQ" Value="6"/>
         <ItemData ItemOID="SE.ETCD" Value="FOLO"/>
         <ItemData ItemOID="SE.ELEMENT" Value="Follow_up"/>
         <ItemData ItemOID="SE.SESTDTC" Value="2013-12-24"/>
         <ItemData ItemOID="SE.SEENDTC" Value="2014-02-17"/>
      </ItemGroupData>
      <ItemGroupData data:ItemGroupDataSeq="197" ItemGroupOID="SE">
         <ItemData ItemOID="SE.STUDYID" Value="CDISCPILOT01"/>
         <ItemData ItemOID="SE.DOMAIN" Value="SE"/>
         <ItemData ItemOID="SE.USUBJID" Value="01-704-1074"/>
         <ItemData ItemOID="SE.SESEQ" Value="1"/>
         <ItemData ItemOID="SE.ETCD" Value="SCRN"/>
         <ItemData ItemOID="SE.ELEMENT" Value="Screen"/>
         <ItemData ItemOID="SE.SESTDTC" Value="2014-01-19"/>
         <ItemData ItemOID="SE.SEENDTC" Value="2014-01-22"/>
      </ItemGroupData>
      <ItemGroupData data:ItemGroupDataSeq="198" ItemGroupOID="SE">
         <ItemData ItemOID="SE.STUDYID" Value="CDISCPILOT01"/>
         <ItemData ItemOID="SE.DOMAIN" Value="SE"/>
         <ItemData ItemOID="SE.USUBJID" Value="01-704-1074"/>
         <ItemData ItemOID="SE.SESEQ" Value="3"/>
         <ItemData ItemOID="SE.ETCD" Value="HIS"/>
         <ItemData ItemOID="SE.ELEMENT" Value="High_Start"/>
         <ItemData ItemOID="SE.SESTDTC" Value="2014-01-22"/>
         <ItemData ItemOID="SE.SEENDTC" Value="2014-02-09"/>
      </ItemGroupData>
      <ItemGroupData data:ItemGroupDataSeq="199" ItemGroupOID="SE">
         <ItemData ItemOID="SE.STUDYID" Value="CDISCPILOT01"/>
         <ItemData ItemOID="SE.DOMAIN" Value="SE"/>
         <ItemData ItemOID="SE.USUBJID" Value="01-704-1074"/>
         <ItemData ItemOID="SE.SESEQ" Value="4"/>
         <ItemData ItemOID="SE.ETCD" Value="HIM"/>
         <ItemData ItemOID="SE.ELEMENT" Value="High_Middle"/>
         <ItemData ItemOID="SE.SESTDTC" Value="2014-02-09"/>
         <ItemData ItemOID="SE.SEENDTC" Value="2014-03-31"/>
      </ItemGroupData>
      <ItemGroupData data:ItemGroupDataSeq="200" ItemGroupOID="SE">
         <ItemData ItemOID="SE.STUDYID" Value="CDISCPILOT01"/>
         <ItemData ItemOID="SE.DOMAIN" Value="SE"/>
         <ItemData ItemOID="SE.USUBJID" Value="01-704-1093"/>
         <ItemData ItemOID="SE.SESEQ" Value="1"/>
         <ItemData ItemOID="SE.ETCD" Value="SCRN"/>
         <ItemData ItemOID="SE.ELEMENT" Value="Screen"/>
         <ItemData ItemOID="SE.SESTDTC" Value="2013-02-22"/>
         <ItemData ItemOID="SE.SEENDTC" Value="2013-03-15"/>
      </ItemGroupData>
      <ItemGroupData data:ItemGroupDataSeq="201" ItemGroupOID="SE">
         <ItemData ItemOID="SE.STUDYID" Value="CDISCPILOT01"/>
         <ItemData ItemOID="SE.DOMAIN" Value="SE"/>
         <ItemData ItemOID="SE.USUBJID" Value="01-704-1093"/>
         <ItemData ItemOID="SE.SESEQ" Value="3"/>
         <ItemData ItemOID="SE.ETCD" Value="HIS"/>
         <ItemData ItemOID="SE.ELEMENT" Value="High_Start"/>
         <ItemData ItemOID="SE.SESTDTC" Value="2013-03-15"/>
         <ItemData ItemOID="SE.SEENDTC" Value="2013-03-30"/>
      </ItemGroupData>
      <ItemGroupData data:ItemGroupDataSeq="202" ItemGroupOID="SE">
         <ItemData ItemOID="SE.STUDYID" Value="CDISCPILOT01"/>
         <ItemData ItemOID="SE.DOMAIN" Value="SE"/>
         <ItemData ItemOID="SE.USUBJID" Value="01-704-1093"/>
         <ItemData ItemOID="SE.SESEQ" Value="4"/>
         <ItemData ItemOID="SE.ETCD" Value="HIM"/>
         <ItemData ItemOID="SE.ELEMENT" Value="High_Middle"/>
         <ItemData ItemOID="SE.SESTDTC" Value="2013-03-30"/>
         <ItemData ItemOID="SE.SEENDTC" Value="2013-06-20"/>
      </ItemGroupData>
      <ItemGroupData data:ItemGroupDataSeq="203" ItemGroupOID="SE">
         <ItemData ItemOID="SE.STUDYID" Value="CDISCPILOT01"/>
         <ItemData ItemOID="SE.DOMAIN" Value="SE"/>
         <ItemData ItemOID="SE.USUBJID" Value="01-704-1093"/>
         <ItemData ItemOID="SE.SESEQ" Value="6"/>
         <ItemData ItemOID="SE.ETCD" Value="FOLO"/>
         <ItemData ItemOID="SE.ELEMENT" Value="Follow_up"/>
         <ItemData ItemOID="SE.SESTDTC" Value="2013-06-20"/>
         <ItemData ItemOID="SE.SEENDTC" Value="2013-12-25"/>
      </ItemGroupData>
      <ItemGroupData data:ItemGroupDataSeq="204" ItemGroupOID="SE">
         <ItemData ItemOID="SE.STUDYID" Value="CDISCPILOT01"/>
         <ItemData ItemOID="SE.DOMAIN" Value="SE"/>
         <ItemData ItemOID="SE.USUBJID" Value="01-704-1114"/>
         <ItemData ItemOID="SE.SESEQ" Value="1"/>
         <ItemData ItemOID="SE.ETCD" Value="SCRN"/>
         <ItemData ItemOID="SE.ELEMENT" Value="Screen"/>
         <ItemData ItemOID="SE.SESTDTC" Value="2013-01-09"/>
         <ItemData ItemOID="SE.SEENDTC" Value="2013-01-23"/>
      </ItemGroupData>
      <ItemGroupData data:ItemGroupDataSeq="205" ItemGroupOID="SE">
         <ItemData ItemOID="SE.STUDYID" Value="CDISCPILOT01"/>
         <ItemData ItemOID="SE.DOMAIN" Value="SE"/>
         <ItemData ItemOID="SE.USUBJID" Value="01-704-1114"/>
         <ItemData ItemOID="SE.SESEQ" Value="4"/>
         <ItemData ItemOID="SE.ETCD" Value="LO"/>
         <ItemData ItemOID="SE.ELEMENT" Value="Low"/>
         <ItemData ItemOID="SE.SESTDTC" Value="2013-01-23"/>
         <ItemData ItemOID="SE.SEENDTC" Value="2013-07-08"/>
      </ItemGroupData>
      <ItemGroupData data:ItemGroupDataSeq="206" ItemGroupOID="SE">
         <ItemData ItemOID="SE.STUDYID" Value="CDISCPILOT01"/>
         <ItemData ItemOID="SE.DOMAIN" Value="SE"/>
         <ItemData ItemOID="SE.USUBJID" Value="01-704-1120"/>
         <ItemData ItemOID="SE.SESEQ" Value="1"/>
         <ItemData ItemOID="SE.ETCD" Value="SCRN"/>
         <ItemData ItemOID="SE.ELEMENT" Value="Screen"/>
         <ItemData ItemOID="SE.SESTDTC" Value="2013-11-18"/>
         <ItemData ItemOID="SE.SEENDTC" Value="2013-12-02"/>
      </ItemGroupData>
      <ItemGroupData data:ItemGroupDataSeq="207" ItemGroupOID="SE">
         <ItemData ItemOID="SE.STUDYID" Value="CDISCPILOT01"/>
         <ItemData ItemOID="SE.DOMAIN" Value="SE"/>
         <ItemData ItemOID="SE.USUBJID" Value="01-704-1120"/>
         <ItemData ItemOID="SE.SESEQ" Value="4"/>
         <ItemData ItemOID="SE.ETCD" Value="LO"/>
         <ItemData ItemOID="SE.ELEMENT" Value="Low"/>
         <ItemData ItemOID="SE.SESTDTC" Value="2013-12-02"/>
         <ItemData ItemOID="SE.SEENDTC" Value="2014-02-03"/>
      </ItemGroupData>
      <ItemGroupData data:ItemGroupDataSeq="208" ItemGroupOID="SE">
         <ItemData ItemOID="SE.STUDYID" Value="CDISCPILOT01"/>
         <ItemData ItemOID="SE.DOMAIN" Value="SE"/>
         <ItemData ItemOID="SE.USUBJID" Value="01-704-1120"/>
         <ItemData ItemOID="SE.SESEQ" Value="6"/>
         <ItemData ItemOID="SE.ETCD" Value="FOLO"/>
         <ItemData ItemOID="SE.ELEMENT" Value="Follow_up"/>
         <ItemData ItemOID="SE.SESTDTC" Value="2014-02-03"/>
         <ItemData ItemOID="SE.SEENDTC" Value="2014-03-10"/>
      </ItemGroupData>
      <ItemGroupData data:ItemGroupDataSeq="209" ItemGroupOID="SE">
         <ItemData ItemOID="SE.STUDYID" Value="CDISCPILOT01"/>
         <ItemData ItemOID="SE.DOMAIN" Value="SE"/>
         <ItemData ItemOID="SE.USUBJID" Value="01-704-1127"/>
         <ItemData ItemOID="SE.SESEQ" Value="1"/>
         <ItemData ItemOID="SE.ETCD" Value="SCRN"/>
         <ItemData ItemOID="SE.ELEMENT" Value="Screen"/>
         <ItemData ItemOID="SE.SESTDTC" Value="2013-09-16"/>
         <ItemData ItemOID="SE.SEENDTC" Value="2013-10-02"/>
      </ItemGroupData>
      <ItemGroupData data:ItemGroupDataSeq="210" ItemGroupOID="SE">
         <ItemData ItemOID="SE.STUDYID" Value="CDISCPILOT01"/>
         <ItemData ItemOID="SE.DOMAIN" Value="SE"/>
         <ItemData ItemOID="SE.USUBJID" Value="01-704-1127"/>
         <ItemData ItemOID="SE.SESEQ" Value="4"/>
         <ItemData ItemOID="SE.ETCD" Value="PBO"/>
         <ItemData ItemOID="SE.ELEMENT" Value="Placebo"/>
         <ItemData ItemOID="SE.SESTDTC" Value="2013-10-02"/>
         <ItemData ItemOID="SE.SEENDTC" Value="2014-03-31"/>
      </ItemGroupData>
      <ItemGroupData data:ItemGroupDataSeq="211" ItemGroupOID="SE">
         <ItemData ItemOID="SE.STUDYID" Value="CDISCPILOT01"/>
         <ItemData ItemOID="SE.DOMAIN" Value="SE"/>
         <ItemData ItemOID="SE.USUBJID" Value="01-704-1135"/>
         <ItemData ItemOID="SE.SESEQ" Value="1"/>
         <ItemData ItemOID="SE.ETCD" Value="SCRN"/>
         <ItemData ItemOID="SE.ELEMENT" Value="Screen"/>
         <ItemData ItemOID="SE.SESTDTC" Value="2013-10-23"/>
         <ItemData ItemOID="SE.SEENDTC" Value="2013-10-31"/>
      </ItemGroupData>
      <ItemGroupData data:ItemGroupDataSeq="212" ItemGroupOID="SE">
         <ItemData ItemOID="SE.STUDYID" Value="CDISCPILOT01"/>
         <ItemData ItemOID="SE.DOMAIN" Value="SE"/>
         <ItemData ItemOID="SE.USUBJID" Value="01-704-1135"/>
         <ItemData ItemOID="SE.SESEQ" Value="4"/>
         <ItemData ItemOID="SE.ETCD" Value="LO"/>
         <ItemData ItemOID="SE.ELEMENT" Value="Low"/>
         <ItemData ItemOID="SE.SESTDTC" Value="2013-10-31"/>
         <ItemData ItemOID="SE.SEENDTC" Value="2014-05-16"/>
      </ItemGroupData>
      <ItemGroupData data:ItemGroupDataSeq="213" ItemGroupOID="SE">
         <ItemData ItemOID="SE.STUDYID" Value="CDISCPILOT01"/>
         <ItemData ItemOID="SE.DOMAIN" Value="SE"/>
         <ItemData ItemOID="SE.USUBJID" Value="01-704-1164"/>
         <ItemData ItemOID="SE.SESEQ" Value="1"/>
         <ItemData ItemOID="SE.ETCD" Value="SCRN"/>
         <ItemData ItemOID="SE.ELEMENT" Value="Screen"/>
         <ItemData ItemOID="SE.SESTDTC" Value="2012-09-11"/>
         <ItemData ItemOID="SE.SEENDTC" Value="2012-09-19"/>
      </ItemGroupData>
      <ItemGroupData data:ItemGroupDataSeq="214" ItemGroupOID="SE">
         <ItemData ItemOID="SE.STUDYID" Value="CDISCPILOT01"/>
         <ItemData ItemOID="SE.DOMAIN" Value="SE"/>
         <ItemData ItemOID="SE.USUBJID" Value="01-704-1164"/>
         <ItemData ItemOID="SE.SESEQ" Value="4"/>
         <ItemData ItemOID="SE.ETCD" Value="PBO"/>
         <ItemData ItemOID="SE.ELEMENT" Value="Placebo"/>
         <ItemData ItemOID="SE.SESTDTC" Value="2012-09-19"/>
         <ItemData ItemOID="SE.SEENDTC" Value="2013-04-04"/>
      </ItemGroupData>
      <ItemGroupData data:ItemGroupDataSeq="215" ItemGroupOID="SE">
         <ItemData ItemOID="SE.STUDYID" Value="CDISCPILOT01"/>
         <ItemData ItemOID="SE.DOMAIN" Value="SE"/>
         <ItemData ItemOID="SE.USUBJID" Value="01-704-1218"/>
         <ItemData ItemOID="SE.SESEQ" Value="1"/>
         <ItemData ItemOID="SE.ETCD" Value="SCRN"/>
         <ItemData ItemOID="SE.ELEMENT" Value="Screen"/>
         <ItemData ItemOID="SE.SESTDTC" Value="2012-11-11"/>
         <ItemData ItemOID="SE.SEENDTC" Value="2012-11-19"/>
      </ItemGroupData>
      <ItemGroupData data:ItemGroupDataSeq="216" ItemGroupOID="SE">
         <ItemData ItemOID="SE.STUDYID" Value="CDISCPILOT01"/>
         <ItemData ItemOID="SE.DOMAIN" Value="SE"/>
         <ItemData ItemOID="SE.USUBJID" Value="01-704-1218"/>
         <ItemData ItemOID="SE.SESEQ" Value="4"/>
         <ItemData ItemOID="SE.ETCD" Value="LO"/>
         <ItemData ItemOID="SE.ELEMENT" Value="Low"/>
         <ItemData ItemOID="SE.SESTDTC" Value="2012-11-19"/>
         <ItemData ItemOID="SE.SEENDTC" Value="2013-05-27"/>
      </ItemGroupData>
      <ItemGroupData data:ItemGroupDataSeq="217" ItemGroupOID="SE">
         <ItemData ItemOID="SE.STUDYID" Value="CDISCPILOT01"/>
         <ItemData ItemOID="SE.DOMAIN" Value="SE"/>
         <ItemData ItemOID="SE.USUBJID" Value="01-704-1233"/>
         <ItemData ItemOID="SE.SESEQ" Value="1"/>
         <ItemData ItemOID="SE.ETCD" Value="SCRN"/>
         <ItemData ItemOID="SE.ELEMENT" Value="Screen"/>
         <ItemData ItemOID="SE.SESTDTC" Value="2013-03-08"/>
         <ItemData ItemOID="SE.SEENDTC" Value="2013-03-21"/>
      </ItemGroupData>
      <ItemGroupData data:ItemGroupDataSeq="218" ItemGroupOID="SE">
         <ItemData ItemOID="SE.STUDYID" Value="CDISCPILOT01"/>
         <ItemData ItemOID="SE.DOMAIN" Value="SE"/>
         <ItemData ItemOID="SE.USUBJID" Value="01-704-1233"/>
         <ItemData ItemOID="SE.SESEQ" Value="4"/>
         <ItemData ItemOID="SE.ETCD" Value="PBO"/>
         <ItemData ItemOID="SE.ELEMENT" Value="Placebo"/>
         <ItemData ItemOID="SE.SESTDTC" Value="2013-03-21"/>
         <ItemData ItemOID="SE.SEENDTC" Value="2013-07-14"/>
      </ItemGroupData>
      <ItemGroupData data:ItemGroupDataSeq="219" ItemGroupOID="SE">
         <ItemData ItemOID="SE.STUDYID" Value="CDISCPILOT01"/>
         <ItemData ItemOID="SE.DOMAIN" Value="SE"/>
         <ItemData ItemOID="SE.USUBJID" Value="01-704-1241"/>
         <ItemData ItemOID="SE.SESEQ" Value="1"/>
         <ItemData ItemOID="SE.ETCD" Value="SCRN"/>
         <ItemData ItemOID="SE.ELEMENT" Value="Screen"/>
         <ItemData ItemOID="SE.SESTDTC" Value="2013-08-14"/>
         <ItemData ItemOID="SE.SEENDTC" Value="2013-08-25"/>
      </ItemGroupData>
      <ItemGroupData data:ItemGroupDataSeq="220" ItemGroupOID="SE">
         <ItemData ItemOID="SE.STUDYID" Value="CDISCPILOT01"/>
         <ItemData ItemOID="SE.DOMAIN" Value="SE"/>
         <ItemData ItemOID="SE.USUBJID" Value="01-704-1241"/>
         <ItemData ItemOID="SE.SESEQ" Value="3"/>
         <ItemData ItemOID="SE.ETCD" Value="HIS"/>
         <ItemData ItemOID="SE.ELEMENT" Value="High_Start"/>
         <ItemData ItemOID="SE.SESTDTC" Value="2013-08-25"/>
         <ItemData ItemOID="SE.SEENDTC" Value="2013-09-05"/>
      </ItemGroupData>
      <ItemGroupData data:ItemGroupDataSeq="221" ItemGroupOID="SE">
         <ItemData ItemOID="SE.STUDYID" Value="CDISCPILOT01"/>
         <ItemData ItemOID="SE.DOMAIN" Value="SE"/>
         <ItemData ItemOID="SE.USUBJID" Value="01-704-1241"/>
         <ItemData ItemOID="SE.SESEQ" Value="4"/>
         <ItemData ItemOID="SE.ETCD" Value="HIM"/>
         <ItemData ItemOID="SE.ELEMENT" Value="High_Middle"/>
         <ItemData ItemOID="SE.SESTDTC" Value="2013-09-05"/>
         <ItemData ItemOID="SE.SEENDTC" Value="2013-10-31"/>
      </ItemGroupData>
      <ItemGroupData data:ItemGroupDataSeq="222" ItemGroupOID="SE">
         <ItemData ItemOID="SE.STUDYID" Value="CDISCPILOT01"/>
         <ItemData ItemOID="SE.DOMAIN" Value="SE"/>
         <ItemData ItemOID="SE.USUBJID" Value="01-704-1241"/>
         <ItemData ItemOID="SE.SESEQ" Value="6"/>
         <ItemData ItemOID="SE.ETCD" Value="FOLO"/>
         <ItemData ItemOID="SE.ELEMENT" Value="Follow_up"/>
         <ItemData ItemOID="SE.SESTDTC" Value="2013-10-31"/>
         <ItemData ItemOID="SE.SEENDTC" Value="2014-01-22"/>
      </ItemGroupData>
      <ItemGroupData data:ItemGroupDataSeq="223" ItemGroupOID="SE">
         <ItemData ItemOID="SE.STUDYID" Value="CDISCPILOT01"/>
         <ItemData ItemOID="SE.DOMAIN" Value="SE"/>
         <ItemData ItemOID="SE.USUBJID" Value="01-704-1260"/>
         <ItemData ItemOID="SE.SESEQ" Value="1"/>
         <ItemData ItemOID="SE.ETCD" Value="SCRN"/>
         <ItemData ItemOID="SE.ELEMENT" Value="Screen"/>
         <ItemData ItemOID="SE.SESTDTC" Value="2012-08-23"/>
         <ItemData ItemOID="SE.SEENDTC" Value="2012-08-30"/>
      </ItemGroupData>
      <ItemGroupData data:ItemGroupDataSeq="224" ItemGroupOID="SE">
         <ItemData ItemOID="SE.STUDYID" Value="CDISCPILOT01"/>
         <ItemData ItemOID="SE.DOMAIN" Value="SE"/>
         <ItemData ItemOID="SE.USUBJID" Value="01-704-1260"/>
         <ItemData ItemOID="SE.SESEQ" Value="4"/>
         <ItemData ItemOID="SE.ETCD" Value="PBO"/>
         <ItemData ItemOID="SE.ELEMENT" Value="Placebo"/>
         <ItemData ItemOID="SE.SESTDTC" Value="2012-08-30"/>
         <ItemData ItemOID="SE.SEENDTC" Value="2013-01-18"/>
      </ItemGroupData>
      <ItemGroupData data:ItemGroupDataSeq="225" ItemGroupOID="SE">
         <ItemData ItemOID="SE.STUDYID" Value="CDISCPILOT01"/>
         <ItemData ItemOID="SE.DOMAIN" Value="SE"/>
         <ItemData ItemOID="SE.USUBJID" Value="01-704-1266"/>
         <ItemData ItemOID="SE.SESEQ" Value="1"/>
         <ItemData ItemOID="SE.ETCD" Value="SCRN"/>
         <ItemData ItemOID="SE.ELEMENT" Value="Screen"/>
         <ItemData ItemOID="SE.SESTDTC" Value="2013-10-05"/>
         <ItemData ItemOID="SE.SEENDTC" Value="2013-10-13"/>
      </ItemGroupData>
      <ItemGroupData data:ItemGroupDataSeq="226" ItemGroupOID="SE">
         <ItemData ItemOID="SE.STUDYID" Value="CDISCPILOT01"/>
         <ItemData ItemOID="SE.DOMAIN" Value="SE"/>
         <ItemData ItemOID="SE.USUBJID" Value="01-704-1266"/>
         <ItemData ItemOID="SE.SESEQ" Value="3"/>
         <ItemData ItemOID="SE.ETCD" Value="HIS"/>
         <ItemData ItemOID="SE.ELEMENT" Value="High_Start"/>
         <ItemData ItemOID="SE.SESTDTC" Value="2013-10-13"/>
         <ItemData ItemOID="SE.SEENDTC" Value="2013-10-27"/>
      </ItemGroupData>
      <ItemGroupData data:ItemGroupDataSeq="227" ItemGroupOID="SE">
         <ItemData ItemOID="SE.STUDYID" Value="CDISCPILOT01"/>
         <ItemData ItemOID="SE.DOMAIN" Value="SE"/>
         <ItemData ItemOID="SE.USUBJID" Value="01-704-1266"/>
         <ItemData ItemOID="SE.SESEQ" Value="4"/>
         <ItemData ItemOID="SE.ETCD" Value="HIM"/>
         <ItemData ItemOID="SE.ELEMENT" Value="High_Middle"/>
         <ItemData ItemOID="SE.SESTDTC" Value="2013-10-27"/>
         <ItemData ItemOID="SE.SEENDTC" Value="2013-12-06"/>
      </ItemGroupData>
      <ItemGroupData data:ItemGroupDataSeq="228" ItemGroupOID="SE">
         <ItemData ItemOID="SE.STUDYID" Value="CDISCPILOT01"/>
         <ItemData ItemOID="SE.DOMAIN" Value="SE"/>
         <ItemData ItemOID="SE.USUBJID" Value="01-704-1266"/>
         <ItemData ItemOID="SE.SESEQ" Value="6"/>
         <ItemData ItemOID="SE.ETCD" Value="FOLO"/>
         <ItemData ItemOID="SE.ELEMENT" Value="Follow_up"/>
         <ItemData ItemOID="SE.SESTDTC" Value="2013-12-06"/>
         <ItemData ItemOID="SE.SEENDTC" Value="2014-01-03"/>
      </ItemGroupData>
      <ItemGroupData data:ItemGroupDataSeq="229" ItemGroupOID="SE">
         <ItemData ItemOID="SE.STUDYID" Value="CDISCPILOT01"/>
         <ItemData ItemOID="SE.DOMAIN" Value="SE"/>
         <ItemData ItemOID="SE.USUBJID" Value="01-704-1323"/>
         <ItemData ItemOID="SE.SESEQ" Value="1"/>
         <ItemData ItemOID="SE.ETCD" Value="SCRN"/>
         <ItemData ItemOID="SE.ELEMENT" Value="Screen"/>
         <ItemData ItemOID="SE.SESTDTC" Value="2013-06-13"/>
         <ItemData ItemOID="SE.SEENDTC" Value="2013-07-08"/>
      </ItemGroupData>
      <ItemGroupData data:ItemGroupDataSeq="230" ItemGroupOID="SE">
         <ItemData ItemOID="SE.STUDYID" Value="CDISCPILOT01"/>
         <ItemData ItemOID="SE.DOMAIN" Value="SE"/>
         <ItemData ItemOID="SE.USUBJID" Value="01-704-1323"/>
         <ItemData ItemOID="SE.SESEQ" Value="4"/>
         <ItemData ItemOID="SE.ETCD" Value="LO"/>
         <ItemData ItemOID="SE.ELEMENT" Value="Low"/>
         <ItemData ItemOID="SE.SESTDTC" Value="2013-07-08"/>
         <ItemData ItemOID="SE.SEENDTC" Value="2013-08-08"/>
      </ItemGroupData>
      <ItemGroupData data:ItemGroupDataSeq="231" ItemGroupOID="SE">
         <ItemData ItemOID="SE.STUDYID" Value="CDISCPILOT01"/>
         <ItemData ItemOID="SE.DOMAIN" Value="SE"/>
         <ItemData ItemOID="SE.USUBJID" Value="01-704-1323"/>
         <ItemData ItemOID="SE.SESEQ" Value="6"/>
         <ItemData ItemOID="SE.ETCD" Value="FOLO"/>
         <ItemData ItemOID="SE.ELEMENT" Value="Follow_up"/>
         <ItemData ItemOID="SE.SESTDTC" Value="2013-08-08"/>
         <ItemData ItemOID="SE.SEENDTC" Value="2013-10-01"/>
      </ItemGroupData>
      <ItemGroupData data:ItemGroupDataSeq="232" ItemGroupOID="SE">
         <ItemData ItemOID="SE.STUDYID" Value="CDISCPILOT01"/>
         <ItemData ItemOID="SE.DOMAIN" Value="SE"/>
         <ItemData ItemOID="SE.USUBJID" Value="01-704-1325"/>
         <ItemData ItemOID="SE.SESEQ" Value="1"/>
         <ItemData ItemOID="SE.ETCD" Value="SCRN"/>
         <ItemData ItemOID="SE.ELEMENT" Value="Screen"/>
         <ItemData ItemOID="SE.SESTDTC" Value="2014-04-16"/>
         <ItemData ItemOID="SE.SEENDTC" Value="2014-04-23"/>
      </ItemGroupData>
      <ItemGroupData data:ItemGroupDataSeq="233" ItemGroupOID="SE">
         <ItemData ItemOID="SE.STUDYID" Value="CDISCPILOT01"/>
         <ItemData ItemOID="SE.DOMAIN" Value="SE"/>
         <ItemData ItemOID="SE.USUBJID" Value="01-704-1325"/>
         <ItemData ItemOID="SE.SESEQ" Value="4"/>
         <ItemData ItemOID="SE.ETCD" Value="LO"/>
         <ItemData ItemOID="SE.ELEMENT" Value="Low"/>
         <ItemData ItemOID="SE.SESTDTC" Value="2014-04-23"/>
         <ItemData ItemOID="SE.SEENDTC" Value="2014-08-06"/>
      </ItemGroupData>
      <ItemGroupData data:ItemGroupDataSeq="234" ItemGroupOID="SE">
         <ItemData ItemOID="SE.STUDYID" Value="CDISCPILOT01"/>
         <ItemData ItemOID="SE.DOMAIN" Value="SE"/>
         <ItemData ItemOID="SE.USUBJID" Value="01-704-1332"/>
         <ItemData ItemOID="SE.SESEQ" Value="1"/>
         <ItemData ItemOID="SE.ETCD" Value="SCRN"/>
         <ItemData ItemOID="SE.ELEMENT" Value="Screen"/>
         <ItemData ItemOID="SE.SESTDTC" Value="2013-11-24"/>
         <ItemData ItemOID="SE.SEENDTC" Value="2013-12-09"/>
      </ItemGroupData>
      <ItemGroupData data:ItemGroupDataSeq="235" ItemGroupOID="SE">
         <ItemData ItemOID="SE.STUDYID" Value="CDISCPILOT01"/>
         <ItemData ItemOID="SE.DOMAIN" Value="SE"/>
         <ItemData ItemOID="SE.USUBJID" Value="01-704-1332"/>
         <ItemData ItemOID="SE.SESEQ" Value="3"/>
         <ItemData ItemOID="SE.ETCD" Value="HIS"/>
         <ItemData ItemOID="SE.ELEMENT" Value="High_Start"/>
         <ItemData ItemOID="SE.SESTDTC" Value="2013-12-09"/>
         <ItemData ItemOID="SE.SEENDTC" Value="2013-12-23"/>
      </ItemGroupData>
      <ItemGroupData data:ItemGroupDataSeq="236" ItemGroupOID="SE">
         <ItemData ItemOID="SE.STUDYID" Value="CDISCPILOT01"/>
         <ItemData ItemOID="SE.DOMAIN" Value="SE"/>
         <ItemData ItemOID="SE.USUBJID" Value="01-704-1332"/>
         <ItemData ItemOID="SE.SESEQ" Value="4"/>
         <ItemData ItemOID="SE.ETCD" Value="HIM"/>
         <ItemData ItemOID="SE.ELEMENT" Value="High_Middle"/>
         <ItemData ItemOID="SE.SESTDTC" Value="2013-12-23"/>
         <ItemData ItemOID="SE.SEENDTC" Value="2014-02-16"/>
      </ItemGroupData>
      <ItemGroupData data:ItemGroupDataSeq="237" ItemGroupOID="SE">
         <ItemData ItemOID="SE.STUDYID" Value="CDISCPILOT01"/>
         <ItemData ItemOID="SE.DOMAIN" Value="SE"/>
         <ItemData ItemOID="SE.USUBJID" Value="01-704-1332"/>
         <ItemData ItemOID="SE.SESEQ" Value="6"/>
         <ItemData ItemOID="SE.ETCD" Value="FOLO"/>
         <ItemData ItemOID="SE.ELEMENT" Value="Follow_up"/>
         <ItemData ItemOID="SE.SESTDTC" Value="2014-02-16"/>
         <ItemData ItemOID="SE.SEENDTC" Value="2014-02-24"/>
      </ItemGroupData>
      <ItemGroupData data:ItemGroupDataSeq="238" ItemGroupOID="SE">
         <ItemData ItemOID="SE.STUDYID" Value="CDISCPILOT01"/>
         <ItemData ItemOID="SE.DOMAIN" Value="SE"/>
         <ItemData ItemOID="SE.USUBJID" Value="01-704-1351"/>
         <ItemData ItemOID="SE.SESEQ" Value="1"/>
         <ItemData ItemOID="SE.ETCD" Value="SCRN"/>
         <ItemData ItemOID="SE.ELEMENT" Value="Screen"/>
         <ItemData ItemOID="SE.SESTDTC" Value="2013-09-26"/>
         <ItemData ItemOID="SE.SEENDTC" Value="2013-10-12"/>
      </ItemGroupData>
      <ItemGroupData data:ItemGroupDataSeq="239" ItemGroupOID="SE">
         <ItemData ItemOID="SE.STUDYID" Value="CDISCPILOT01"/>
         <ItemData ItemOID="SE.DOMAIN" Value="SE"/>
         <ItemData ItemOID="SE.USUBJID" Value="01-704-1351"/>
         <ItemData ItemOID="SE.SESEQ" Value="4"/>
         <ItemData ItemOID="SE.ETCD" Value="PBO"/>
         <ItemData ItemOID="SE.ELEMENT" Value="Placebo"/>
         <ItemData ItemOID="SE.SESTDTC" Value="2013-10-12"/>
         <ItemData ItemOID="SE.SEENDTC" Value="2014-04-18"/>
      </ItemGroupData>
      <ItemGroupData data:ItemGroupDataSeq="240" ItemGroupOID="SE">
         <ItemData ItemOID="SE.STUDYID" Value="CDISCPILOT01"/>
         <ItemData ItemOID="SE.DOMAIN" Value="SE"/>
         <ItemData ItemOID="SE.USUBJID" Value="01-704-1388"/>
         <ItemData ItemOID="SE.SESEQ" Value="1"/>
         <ItemData ItemOID="SE.ETCD" Value="SCRN"/>
         <ItemData ItemOID="SE.ELEMENT" Value="Screen"/>
         <ItemData ItemOID="SE.SESTDTC" Value="2012-11-28"/>
         <ItemData ItemOID="SE.SEENDTC" Value="2012-12-07"/>
      </ItemGroupData>
      <ItemGroupData data:ItemGroupDataSeq="241" ItemGroupOID="SE">
         <ItemData ItemOID="SE.STUDYID" Value="CDISCPILOT01"/>
         <ItemData ItemOID="SE.DOMAIN" Value="SE"/>
         <ItemData ItemOID="SE.USUBJID" Value="01-704-1388"/>
         <ItemData ItemOID="SE.SESEQ" Value="4"/>
         <ItemData ItemOID="SE.ETCD" Value="PBO"/>
         <ItemData ItemOID="SE.ELEMENT" Value="Placebo"/>
         <ItemData ItemOID="SE.SESTDTC" Value="2012-12-07"/>
         <ItemData ItemOID="SE.SEENDTC" Value="2013-06-19"/>
      </ItemGroupData>
      <ItemGroupData data:ItemGroupDataSeq="242" ItemGroupOID="SE">
         <ItemData ItemOID="SE.STUDYID" Value="CDISCPILOT01"/>
         <ItemData ItemOID="SE.DOMAIN" Value="SE"/>
         <ItemData ItemOID="SE.USUBJID" Value="01-704-1435"/>
         <ItemData ItemOID="SE.SESEQ" Value="1"/>
         <ItemData ItemOID="SE.ETCD" Value="SCRN"/>
         <ItemData ItemOID="SE.ELEMENT" Value="Screen"/>
         <ItemData ItemOID="SE.SESTDTC" Value="2012-11-01"/>
         <ItemData ItemOID="SE.SEENDTC" Value="2012-11-17"/>
      </ItemGroupData>
      <ItemGroupData data:ItemGroupDataSeq="243" ItemGroupOID="SE">
         <ItemData ItemOID="SE.STUDYID" Value="CDISCPILOT01"/>
         <ItemData ItemOID="SE.DOMAIN" Value="SE"/>
         <ItemData ItemOID="SE.USUBJID" Value="01-704-1435"/>
         <ItemData ItemOID="SE.SESEQ" Value="4"/>
         <ItemData ItemOID="SE.ETCD" Value="PBO"/>
         <ItemData ItemOID="SE.ELEMENT" Value="Placebo"/>
         <ItemData ItemOID="SE.SESTDTC" Value="2012-11-17"/>
         <ItemData ItemOID="SE.SEENDTC" Value="2013-01-12"/>
      </ItemGroupData>
      <ItemGroupData data:ItemGroupDataSeq="244" ItemGroupOID="SE">
         <ItemData ItemOID="SE.STUDYID" Value="CDISCPILOT01"/>
         <ItemData ItemOID="SE.DOMAIN" Value="SE"/>
         <ItemData ItemOID="SE.USUBJID" Value="01-704-1445"/>
         <ItemData ItemOID="SE.SESEQ" Value="1"/>
         <ItemData ItemOID="SE.ETCD" Value="SCRN"/>
         <ItemData ItemOID="SE.ELEMENT" Value="Screen"/>
         <ItemData ItemOID="SE.SESTDTC" Value="2014-05-01"/>
         <ItemData ItemOID="SE.SEENDTC" Value="2014-05-11"/>
      </ItemGroupData>
      <ItemGroupData data:ItemGroupDataSeq="245" ItemGroupOID="SE">
         <ItemData ItemOID="SE.STUDYID" Value="CDISCPILOT01"/>
         <ItemData ItemOID="SE.DOMAIN" Value="SE"/>
         <ItemData ItemOID="SE.USUBJID" Value="01-704-1445"/>
         <ItemData ItemOID="SE.SESEQ" Value="4"/>
         <ItemData ItemOID="SE.ETCD" Value="PBO"/>
         <ItemData ItemOID="SE.ELEMENT" Value="Placebo"/>
         <ItemData ItemOID="SE.SESTDTC" Value="2014-05-11"/>
         <ItemData ItemOID="SE.SEENDTC" Value="2014-11-01"/>
      </ItemGroupData>
      <ItemGroupData data:ItemGroupDataSeq="246" ItemGroupOID="SE">
         <ItemData ItemOID="SE.STUDYID" Value="CDISCPILOT01"/>
         <ItemData ItemOID="SE.DOMAIN" Value="SE"/>
         <ItemData ItemOID="SE.USUBJID" Value="01-705-1011"/>
         <ItemData ItemOID="SE.SESEQ" Value="1"/>
         <ItemData ItemOID="SE.ETCD" Value="SCRN"/>
         <ItemData ItemOID="SE.ELEMENT" Value="Screen"/>
         <ItemData ItemOID="SE.SESTDTC" Value="2013-09-01"/>
         <ItemData ItemOID="SE.SEENDTC" Value="2013-09-13"/>
      </ItemGroupData>
      <ItemGroupData data:ItemGroupDataSeq="247" ItemGroupOID="SE">
         <ItemData ItemOID="SE.STUDYID" Value="CDISCPILOT01"/>
         <ItemData ItemOID="SE.DOMAIN" Value="SE"/>
         <ItemData ItemOID="SE.USUBJID" Value="01-705-1018"/>
         <ItemData ItemOID="SE.SESEQ" Value="1"/>
         <ItemData ItemOID="SE.ETCD" Value="SCRN"/>
         <ItemData ItemOID="SE.ELEMENT" Value="Screen"/>
         <ItemData ItemOID="SE.SESTDTC" Value="2013-06-30"/>
         <ItemData ItemOID="SE.SEENDTC" Value="2013-07-05"/>
      </ItemGroupData>
      <ItemGroupData data:ItemGroupDataSeq="248" ItemGroupOID="SE">
         <ItemData ItemOID="SE.STUDYID" Value="CDISCPILOT01"/>
         <ItemData ItemOID="SE.DOMAIN" Value="SE"/>
         <ItemData ItemOID="SE.USUBJID" Value="01-705-1018"/>
         <ItemData ItemOID="SE.SESEQ" Value="4"/>
         <ItemData ItemOID="SE.ETCD" Value="PBO"/>
         <ItemData ItemOID="SE.ELEMENT" Value="Placebo"/>
         <ItemData ItemOID="SE.SESTDTC" Value="2013-07-05"/>
         <ItemData ItemOID="SE.SEENDTC" Value="2013-07-12"/>
      </ItemGroupData>
      <ItemGroupData data:ItemGroupDataSeq="249" ItemGroupOID="SE">
         <ItemData ItemOID="SE.STUDYID" Value="CDISCPILOT01"/>
         <ItemData ItemOID="SE.DOMAIN" Value="SE"/>
         <ItemData ItemOID="SE.USUBJID" Value="01-705-1031"/>
         <ItemData ItemOID="SE.SESEQ" Value="1"/>
         <ItemData ItemOID="SE.ETCD" Value="SCRN"/>
         <ItemData ItemOID="SE.ELEMENT" Value="Screen"/>
         <ItemData ItemOID="SE.SESTDTC" Value="2013-11-17"/>
         <ItemData ItemOID="SE.SEENDTC" Value="2013-11-27"/>
      </ItemGroupData>
      <ItemGroupData data:ItemGroupDataSeq="250" ItemGroupOID="SE">
         <ItemData ItemOID="SE.STUDYID" Value="CDISCPILOT01"/>
         <ItemData ItemOID="SE.DOMAIN" Value="SE"/>
         <ItemData ItemOID="SE.USUBJID" Value="01-705-1031"/>
         <ItemData ItemOID="SE.SESEQ" Value="4"/>
         <ItemData ItemOID="SE.ETCD" Value="LO"/>
         <ItemData ItemOID="SE.ELEMENT" Value="Low"/>
         <ItemData ItemOID="SE.SESTDTC" Value="2013-11-27"/>
         <ItemData ItemOID="SE.SEENDTC" Value="2014-05-11"/>
      </ItemGroupData>
      <ItemGroupData data:ItemGroupDataSeq="251" ItemGroupOID="SE">
         <ItemData ItemOID="SE.STUDYID" Value="CDISCPILOT01"/>
         <ItemData ItemOID="SE.DOMAIN" Value="SE"/>
         <ItemData ItemOID="SE.USUBJID" Value="01-705-1058"/>
         <ItemData ItemOID="SE.SESEQ" Value="1"/>
         <ItemData ItemOID="SE.ETCD" Value="SCRN"/>
         <ItemData ItemOID="SE.ELEMENT" Value="Screen"/>
         <ItemData ItemOID="SE.SESTDTC" Value="2013-12-02"/>
         <ItemData ItemOID="SE.SEENDTC" Value="2013-12-06"/>
      </ItemGroupData>
      <ItemGroupData data:ItemGroupDataSeq="252" ItemGroupOID="SE">
         <ItemData ItemOID="SE.STUDYID" Value="CDISCPILOT01"/>
         <ItemData ItemOID="SE.DOMAIN" Value="SE"/>
         <ItemData ItemOID="SE.USUBJID" Value="01-705-1059"/>
         <ItemData ItemOID="SE.SESEQ" Value="1"/>
         <ItemData ItemOID="SE.ETCD" Value="SCRN"/>
         <ItemData ItemOID="SE.ELEMENT" Value="Screen"/>
         <ItemData ItemOID="SE.SESTDTC" Value="2013-08-02"/>
         <ItemData ItemOID="SE.SEENDTC" Value="2013-08-05"/>
      </ItemGroupData>
      <ItemGroupData data:ItemGroupDataSeq="253" ItemGroupOID="SE">
         <ItemData ItemOID="SE.STUDYID" Value="CDISCPILOT01"/>
         <ItemData ItemOID="SE.DOMAIN" Value="SE"/>
         <ItemData ItemOID="SE.USUBJID" Value="01-705-1059"/>
         <ItemData ItemOID="SE.SESEQ" Value="4"/>
         <ItemData ItemOID="SE.ETCD" Value="PBO"/>
         <ItemData ItemOID="SE.ELEMENT" Value="Placebo"/>
         <ItemData ItemOID="SE.SESTDTC" Value="2013-08-05"/>
         <ItemData ItemOID="SE.SEENDTC" Value="2013-12-05"/>
      </ItemGroupData>
      <ItemGroupData data:ItemGroupDataSeq="254" ItemGroupOID="SE">
         <ItemData ItemOID="SE.STUDYID" Value="CDISCPILOT01"/>
         <ItemData ItemOID="SE.DOMAIN" Value="SE"/>
         <ItemData ItemOID="SE.USUBJID" Value="01-705-1059"/>
         <ItemData ItemOID="SE.SESEQ" Value="6"/>
         <ItemData ItemOID="SE.ETCD" Value="FOLO"/>
         <ItemData ItemOID="SE.ELEMENT" Value="Follow_up"/>
         <ItemData ItemOID="SE.SESTDTC" Value="2013-12-05"/>
         <ItemData ItemOID="SE.SEENDTC" Value="2014-02-06"/>
      </ItemGroupData>
      <ItemGroupData data:ItemGroupDataSeq="255" ItemGroupOID="SE">
         <ItemData ItemOID="SE.STUDYID" Value="CDISCPILOT01"/>
         <ItemData ItemOID="SE.DOMAIN" Value="SE"/>
         <ItemData ItemOID="SE.USUBJID" Value="01-705-1112"/>
         <ItemData ItemOID="SE.SESEQ" Value="1"/>
         <ItemData ItemOID="SE.ETCD" Value="SCRN"/>
         <ItemData ItemOID="SE.ELEMENT" Value="Screen"/>
         <ItemData ItemOID="SE.SESTDTC" Value="2014-02-23"/>
         <ItemData ItemOID="SE.SEENDTC" Value="2014-02-24"/>
      </ItemGroupData>
      <ItemGroupData data:ItemGroupDataSeq="256" ItemGroupOID="SE">
         <ItemData ItemOID="SE.STUDYID" Value="CDISCPILOT01"/>
         <ItemData ItemOID="SE.DOMAIN" Value="SE"/>
         <ItemData ItemOID="SE.USUBJID" Value="01-705-1186"/>
         <ItemData ItemOID="SE.SESEQ" Value="1"/>
         <ItemData ItemOID="SE.ETCD" Value="SCRN"/>
         <ItemData ItemOID="SE.ELEMENT" Value="Screen"/>
         <ItemData ItemOID="SE.SESTDTC" Value="2014-01-03"/>
         <ItemData ItemOID="SE.SEENDTC" Value="2014-01-08"/>
      </ItemGroupData>
      <ItemGroupData data:ItemGroupDataSeq="257" ItemGroupOID="SE">
         <ItemData ItemOID="SE.STUDYID" Value="CDISCPILOT01"/>
         <ItemData ItemOID="SE.DOMAIN" Value="SE"/>
         <ItemData ItemOID="SE.USUBJID" Value="01-705-1186"/>
         <ItemData ItemOID="SE.SESEQ" Value="4"/>
         <ItemData ItemOID="SE.ETCD" Value="PBO"/>
         <ItemData ItemOID="SE.ELEMENT" Value="Placebo"/>
         <ItemData ItemOID="SE.SESTDTC" Value="2014-01-08"/>
         <ItemData ItemOID="SE.SEENDTC" Value="2014-02-07"/>
      </ItemGroupData>
      <ItemGroupData data:ItemGroupDataSeq="258" ItemGroupOID="SE">
         <ItemData ItemOID="SE.STUDYID" Value="CDISCPILOT01"/>
         <ItemData ItemOID="SE.DOMAIN" Value="SE"/>
         <ItemData ItemOID="SE.USUBJID" Value="01-705-1199"/>
         <ItemData ItemOID="SE.SESEQ" Value="1"/>
         <ItemData ItemOID="SE.ETCD" Value="SCRN"/>
         <ItemData ItemOID="SE.ELEMENT" Value="Screen"/>
         <ItemData ItemOID="SE.SESTDTC" Value="2013-09-11"/>
         <ItemData ItemOID="SE.SEENDTC" Value="2013-09-16"/>
      </ItemGroupData>
      <ItemGroupData data:ItemGroupDataSeq="259" ItemGroupOID="SE">
         <ItemData ItemOID="SE.STUDYID" Value="CDISCPILOT01"/>
         <ItemData ItemOID="SE.DOMAIN" Value="SE"/>
         <ItemData ItemOID="SE.USUBJID" Value="01-705-1199"/>
         <ItemData ItemOID="SE.SESEQ" Value="4"/>
         <ItemData ItemOID="SE.ETCD" Value="LO"/>
         <ItemData ItemOID="SE.ELEMENT" Value="Low"/>
         <ItemData ItemOID="SE.SESTDTC" Value="2013-09-16"/>
         <ItemData ItemOID="SE.SEENDTC" Value="2013-09-29"/>
      </ItemGroupData>
      <ItemGroupData data:ItemGroupDataSeq="260" ItemGroupOID="SE">
         <ItemData ItemOID="SE.STUDYID" Value="CDISCPILOT01"/>
         <ItemData ItemOID="SE.DOMAIN" Value="SE"/>
         <ItemData ItemOID="SE.USUBJID" Value="01-705-1199"/>
         <ItemData ItemOID="SE.SESEQ" Value="6"/>
         <ItemData ItemOID="SE.ETCD" Value="FOLO"/>
         <ItemData ItemOID="SE.ELEMENT" Value="Follow_up"/>
         <ItemData ItemOID="SE.SESTDTC" Value="2013-09-29"/>
         <ItemData ItemOID="SE.SEENDTC" Value="2013-09-29"/>
      </ItemGroupData>
      <ItemGroupData data:ItemGroupDataSeq="261" ItemGroupOID="SE">
         <ItemData ItemOID="SE.STUDYID" Value="CDISCPILOT01"/>
         <ItemData ItemOID="SE.DOMAIN" Value="SE"/>
         <ItemData ItemOID="SE.USUBJID" Value="01-705-1243"/>
         <ItemData ItemOID="SE.SESEQ" Value="1"/>
         <ItemData ItemOID="SE.ETCD" Value="SCRN"/>
         <ItemData ItemOID="SE.ELEMENT" Value="Screen"/>
         <ItemData ItemOID="SE.SESTDTC" Value="2013-02-26"/>
         <ItemData ItemOID="SE.SEENDTC" Value="2013-03-04"/>
      </ItemGroupData>
      <ItemGroupData data:ItemGroupDataSeq="262" ItemGroupOID="SE">
         <ItemData ItemOID="SE.STUDYID" Value="CDISCPILOT01"/>
         <ItemData ItemOID="SE.DOMAIN" Value="SE"/>
         <ItemData ItemOID="SE.USUBJID" Value="01-705-1280"/>
         <ItemData ItemOID="SE.SESEQ" Value="1"/>
         <ItemData ItemOID="SE.ETCD" Value="SCRN"/>
         <ItemData ItemOID="SE.ELEMENT" Value="Screen"/>
         <ItemData ItemOID="SE.SESTDTC" Value="2014-01-11"/>
         <ItemData ItemOID="SE.SEENDTC" Value="2014-01-17"/>
      </ItemGroupData>
      <ItemGroupData data:ItemGroupDataSeq="263" ItemGroupOID="SE">
         <ItemData ItemOID="SE.STUDYID" Value="CDISCPILOT01"/>
         <ItemData ItemOID="SE.DOMAIN" Value="SE"/>
         <ItemData ItemOID="SE.USUBJID" Value="01-705-1280"/>
         <ItemData ItemOID="SE.SESEQ" Value="3"/>
         <ItemData ItemOID="SE.ETCD" Value="HIS"/>
         <ItemData ItemOID="SE.ELEMENT" Value="High_Start"/>
         <ItemData ItemOID="SE.SESTDTC" Value="2014-01-17"/>
         <ItemData ItemOID="SE.SEENDTC" Value="2014-01-31"/>
      </ItemGroupData>
      <ItemGroupData data:ItemGroupDataSeq="264" ItemGroupOID="SE">
         <ItemData ItemOID="SE.STUDYID" Value="CDISCPILOT01"/>
         <ItemData ItemOID="SE.DOMAIN" Value="SE"/>
         <ItemData ItemOID="SE.USUBJID" Value="01-705-1280"/>
         <ItemData ItemOID="SE.SESEQ" Value="4"/>
         <ItemData ItemOID="SE.ETCD" Value="HIM"/>
         <ItemData ItemOID="SE.ELEMENT" Value="High_Middle"/>
         <ItemData ItemOID="SE.SESTDTC" Value="2014-01-31"/>
         <ItemData ItemOID="SE.SEENDTC" Value="2014-07-11"/>
      </ItemGroupData>
      <ItemGroupData data:ItemGroupDataSeq="265" ItemGroupOID="SE">
         <ItemData ItemOID="SE.STUDYID" Value="CDISCPILOT01"/>
         <ItemData ItemOID="SE.DOMAIN" Value="SE"/>
         <ItemData ItemOID="SE.USUBJID" Value="01-705-1280"/>
         <ItemData ItemOID="SE.SESEQ" Value="5"/>
         <ItemData ItemOID="SE.ETCD" Value="HIE"/>
         <ItemData ItemOID="SE.ELEMENT" Value="High_End"/>
         <ItemData ItemOID="SE.SESTDTC" Value="2014-07-11"/>
         <ItemData ItemOID="SE.SEENDTC" Value="2014-07-25"/>
      </ItemGroupData>
      <ItemGroupData data:ItemGroupDataSeq="266" ItemGroupOID="SE">
         <ItemData ItemOID="SE.STUDYID" Value="CDISCPILOT01"/>
         <ItemData ItemOID="SE.DOMAIN" Value="SE"/>
         <ItemData ItemOID="SE.USUBJID" Value="01-705-1281"/>
         <ItemData ItemOID="SE.SESEQ" Value="1"/>
         <ItemData ItemOID="SE.ETCD" Value="SCRN"/>
         <ItemData ItemOID="SE.ELEMENT" Value="Screen"/>
         <ItemData ItemOID="SE.SESTDTC" Value="2013-11-26"/>
         <ItemData ItemOID="SE.SEENDTC" Value="2013-11-28"/>
      </ItemGroupData>
      <ItemGroupData data:ItemGroupDataSeq="267" ItemGroupOID="SE">
         <ItemData ItemOID="SE.STUDYID" Value="CDISCPILOT01"/>
         <ItemData ItemOID="SE.DOMAIN" Value="SE"/>
         <ItemData ItemOID="SE.USUBJID" Value="01-705-1281"/>
         <ItemData ItemOID="SE.SESEQ" Value="3"/>
         <ItemData ItemOID="SE.ETCD" Value="HIS"/>
         <ItemData ItemOID="SE.ELEMENT" Value="High_Start"/>
         <ItemData ItemOID="SE.SESTDTC" Value="2013-11-28"/>
         <ItemData ItemOID="SE.SEENDTC" Value="2013-12-15"/>
      </ItemGroupData>
      <ItemGroupData data:ItemGroupDataSeq="268" ItemGroupOID="SE">
         <ItemData ItemOID="SE.STUDYID" Value="CDISCPILOT01"/>
         <ItemData ItemOID="SE.DOMAIN" Value="SE"/>
         <ItemData ItemOID="SE.USUBJID" Value="01-705-1281"/>
         <ItemData ItemOID="SE.SESEQ" Value="4"/>
         <ItemData ItemOID="SE.ETCD" Value="HIM"/>
         <ItemData ItemOID="SE.ELEMENT" Value="High_Middle"/>
         <ItemData ItemOID="SE.SESTDTC" Value="2013-12-15"/>
         <ItemData ItemOID="SE.SEENDTC" Value="2014-03-17"/>
      </ItemGroupData>
      <ItemGroupData data:ItemGroupDataSeq="269" ItemGroupOID="SE">
         <ItemData ItemOID="SE.STUDYID" Value="CDISCPILOT01"/>
         <ItemData ItemOID="SE.DOMAIN" Value="SE"/>
         <ItemData ItemOID="SE.USUBJID" Value="01-705-1281"/>
         <ItemData ItemOID="SE.SESEQ" Value="6"/>
         <ItemData ItemOID="SE.ETCD" Value="FOLO"/>
         <ItemData ItemOID="SE.ELEMENT" Value="Follow_up"/>
         <ItemData ItemOID="SE.SESTDTC" Value="2014-03-17"/>
         <ItemData ItemOID="SE.SEENDTC" Value="2014-04-20"/>
      </ItemGroupData>
      <ItemGroupData data:ItemGroupDataSeq="270" ItemGroupOID="SE">
         <ItemData ItemOID="SE.STUDYID" Value="CDISCPILOT01"/>
         <ItemData ItemOID="SE.DOMAIN" Value="SE"/>
         <ItemData ItemOID="SE.USUBJID" Value="01-705-1282"/>
         <ItemData ItemOID="SE.SESEQ" Value="1"/>
         <ItemData ItemOID="SE.ETCD" Value="SCRN"/>
         <ItemData ItemOID="SE.ELEMENT" Value="Screen"/>
         <ItemData ItemOID="SE.SESTDTC" Value="2012-12-23"/>
         <ItemData ItemOID="SE.SEENDTC" Value="2012-12-26"/>
      </ItemGroupData>
      <ItemGroupData data:ItemGroupDataSeq="271" ItemGroupOID="SE">
         <ItemData ItemOID="SE.STUDYID" Value="CDISCPILOT01"/>
         <ItemData ItemOID="SE.DOMAIN" Value="SE"/>
         <ItemData ItemOID="SE.USUBJID" Value="01-705-1282"/>
         <ItemData ItemOID="SE.SESEQ" Value="4"/>
         <ItemData ItemOID="SE.ETCD" Value="PBO"/>
         <ItemData ItemOID="SE.ELEMENT" Value="Placebo"/>
         <ItemData ItemOID="SE.SESTDTC" Value="2012-12-26"/>
         <ItemData ItemOID="SE.SEENDTC" Value="2013-06-24"/>
      </ItemGroupData>
      <ItemGroupData data:ItemGroupDataSeq="272" ItemGroupOID="SE">
         <ItemData ItemOID="SE.STUDYID" Value="CDISCPILOT01"/>
         <ItemData ItemOID="SE.DOMAIN" Value="SE"/>
         <ItemData ItemOID="SE.USUBJID" Value="01-705-1292"/>
         <ItemData ItemOID="SE.SESEQ" Value="1"/>
         <ItemData ItemOID="SE.ETCD" Value="SCRN"/>
         <ItemData ItemOID="SE.ELEMENT" Value="Screen"/>
         <ItemData ItemOID="SE.SESTDTC" Value="2013-10-11"/>
         <ItemData ItemOID="SE.SEENDTC" Value="2013-10-14"/>
      </ItemGroupData>
      <ItemGroupData data:ItemGroupDataSeq="273" ItemGroupOID="SE">
         <ItemData ItemOID="SE.STUDYID" Value="CDISCPILOT01"/>
         <ItemData ItemOID="SE.DOMAIN" Value="SE"/>
         <ItemData ItemOID="SE.USUBJID" Value="01-705-1292"/>
         <ItemData ItemOID="SE.SESEQ" Value="4"/>
         <ItemData ItemOID="SE.ETCD" Value="LO"/>
         <ItemData ItemOID="SE.ELEMENT" Value="Low"/>
         <ItemData ItemOID="SE.SESTDTC" Value="2013-10-14"/>
         <ItemData ItemOID="SE.SEENDTC" Value="2014-05-14"/>
      </ItemGroupData>
      <ItemGroupData data:ItemGroupDataSeq="274" ItemGroupOID="SE">
         <ItemData ItemOID="SE.STUDYID" Value="CDISCPILOT01"/>
         <ItemData ItemOID="SE.DOMAIN" Value="SE"/>
         <ItemData ItemOID="SE.USUBJID" Value="01-705-1303"/>
         <ItemData ItemOID="SE.SESEQ" Value="1"/>
         <ItemData ItemOID="SE.ETCD" Value="SCRN"/>
         <ItemData ItemOID="SE.ELEMENT" Value="Screen"/>
         <ItemData ItemOID="SE.SESTDTC" Value="2013-12-10"/>
         <ItemData ItemOID="SE.SEENDTC" Value="2013-12-16"/>
      </ItemGroupData>
      <ItemGroupData data:ItemGroupDataSeq="275" ItemGroupOID="SE">
         <ItemData ItemOID="SE.STUDYID" Value="CDISCPILOT01"/>
         <ItemData ItemOID="SE.DOMAIN" Value="SE"/>
         <ItemData ItemOID="SE.USUBJID" Value="01-705-1303"/>
         <ItemData ItemOID="SE.SESEQ" Value="3"/>
         <ItemData ItemOID="SE.ETCD" Value="HIS"/>
         <ItemData ItemOID="SE.ELEMENT" Value="High_Start"/>
         <ItemData ItemOID="SE.SESTDTC" Value="2013-12-16"/>
         <ItemData ItemOID="SE.SEENDTC" Value="2013-12-30"/>
      </ItemGroupData>
      <ItemGroupData data:ItemGroupDataSeq="276" ItemGroupOID="SE">
         <ItemData ItemOID="SE.STUDYID" Value="CDISCPILOT01"/>
         <ItemData ItemOID="SE.DOMAIN" Value="SE"/>
         <ItemData ItemOID="SE.USUBJID" Value="01-705-1303"/>
         <ItemData ItemOID="SE.SESEQ" Value="4"/>
         <ItemData ItemOID="SE.ETCD" Value="HIM"/>
         <ItemData ItemOID="SE.ELEMENT" Value="High_Middle"/>
         <ItemData ItemOID="SE.SESTDTC" Value="2013-12-30"/>
         <ItemData ItemOID="SE.SEENDTC" Value="2014-06-02"/>
      </ItemGroupData>
      <ItemGroupData data:ItemGroupDataSeq="277" ItemGroupOID="SE">
         <ItemData ItemOID="SE.STUDYID" Value="CDISCPILOT01"/>
         <ItemData ItemOID="SE.DOMAIN" Value="SE"/>
         <ItemData ItemOID="SE.USUBJID" Value="01-705-1310"/>
         <ItemData ItemOID="SE.SESEQ" Value="1"/>
         <ItemData ItemOID="SE.ETCD" Value="SCRN"/>
         <ItemData ItemOID="SE.ELEMENT" Value="Screen"/>
         <ItemData ItemOID="SE.SESTDTC" Value="2013-10-26"/>
         <ItemData ItemOID="SE.SEENDTC" Value="2013-11-02"/>
      </ItemGroupData>
      <ItemGroupData data:ItemGroupDataSeq="278" ItemGroupOID="SE">
         <ItemData ItemOID="SE.STUDYID" Value="CDISCPILOT01"/>
         <ItemData ItemOID="SE.DOMAIN" Value="SE"/>
         <ItemData ItemOID="SE.USUBJID" Value="01-705-1310"/>
         <ItemData ItemOID="SE.SESEQ" Value="3"/>
         <ItemData ItemOID="SE.ETCD" Value="HIS"/>
         <ItemData ItemOID="SE.ELEMENT" Value="High_Start"/>
         <ItemData ItemOID="SE.SESTDTC" Value="2013-11-02"/>
         <ItemData ItemOID="SE.SEENDTC" Value="2013-11-22"/>
      </ItemGroupData>
      <ItemGroupData data:ItemGroupDataSeq="279" ItemGroupOID="SE">
         <ItemData ItemOID="SE.STUDYID" Value="CDISCPILOT01"/>
         <ItemData ItemOID="SE.DOMAIN" Value="SE"/>
         <ItemData ItemOID="SE.USUBJID" Value="01-705-1310"/>
         <ItemData ItemOID="SE.SESEQ" Value="4"/>
         <ItemData ItemOID="SE.ETCD" Value="HIM"/>
         <ItemData ItemOID="SE.ELEMENT" Value="High_Middle"/>
         <ItemData ItemOID="SE.SESTDTC" Value="2013-11-22"/>
         <ItemData ItemOID="SE.SEENDTC" Value="2014-01-23"/>
      </ItemGroupData>
      <ItemGroupData data:ItemGroupDataSeq="280" ItemGroupOID="SE">
         <ItemData ItemOID="SE.STUDYID" Value="CDISCPILOT01"/>
         <ItemData ItemOID="SE.DOMAIN" Value="SE"/>
         <ItemData ItemOID="SE.USUBJID" Value="01-705-1310"/>
         <ItemData ItemOID="SE.SESEQ" Value="6"/>
         <ItemData ItemOID="SE.ETCD" Value="FOLO"/>
         <ItemData ItemOID="SE.ELEMENT" Value="Follow_up"/>
         <ItemData ItemOID="SE.SESTDTC" Value="2014-01-23"/>
         <ItemData ItemOID="SE.SEENDTC" Value="2014-02-24"/>
      </ItemGroupData>
      <ItemGroupData data:ItemGroupDataSeq="281" ItemGroupOID="SE">
         <ItemData ItemOID="SE.STUDYID" Value="CDISCPILOT01"/>
         <ItemData ItemOID="SE.DOMAIN" Value="SE"/>
         <ItemData ItemOID="SE.USUBJID" Value="01-705-1349"/>
         <ItemData ItemOID="SE.SESEQ" Value="1"/>
         <ItemData ItemOID="SE.ETCD" Value="SCRN"/>
         <ItemData ItemOID="SE.ELEMENT" Value="Screen"/>
         <ItemData ItemOID="SE.SESTDTC" Value="2013-02-24"/>
         <ItemData ItemOID="SE.SEENDTC" Value="2013-03-10"/>
      </ItemGroupData>
      <ItemGroupData data:ItemGroupDataSeq="282" ItemGroupOID="SE">
         <ItemData ItemOID="SE.STUDYID" Value="CDISCPILOT01"/>
         <ItemData ItemOID="SE.DOMAIN" Value="SE"/>
         <ItemData ItemOID="SE.USUBJID" Value="01-705-1349"/>
         <ItemData ItemOID="SE.SESEQ" Value="4"/>
         <ItemData ItemOID="SE.ETCD" Value="PBO"/>
         <ItemData ItemOID="SE.ELEMENT" Value="Placebo"/>
         <ItemData ItemOID="SE.SESTDTC" Value="2013-03-10"/>
         <ItemData ItemOID="SE.SEENDTC" Value="2013-09-08"/>
      </ItemGroupData>
      <ItemGroupData data:ItemGroupDataSeq="283" ItemGroupOID="SE">
         <ItemData ItemOID="SE.STUDYID" Value="CDISCPILOT01"/>
         <ItemData ItemOID="SE.DOMAIN" Value="SE"/>
         <ItemData ItemOID="SE.USUBJID" Value="01-705-1377"/>
         <ItemData ItemOID="SE.SESEQ" Value="1"/>
         <ItemData ItemOID="SE.ETCD" Value="SCRN"/>
         <ItemData ItemOID="SE.ELEMENT" Value="Screen"/>
         <ItemData ItemOID="SE.SESTDTC" Value="2013-12-29"/>
         <ItemData ItemOID="SE.SEENDTC" Value="2014-01-04"/>
      </ItemGroupData>
      <ItemGroupData data:ItemGroupDataSeq="284" ItemGroupOID="SE">
         <ItemData ItemOID="SE.STUDYID" Value="CDISCPILOT01"/>
         <ItemData ItemOID="SE.DOMAIN" Value="SE"/>
         <ItemData ItemOID="SE.USUBJID" Value="01-705-1377"/>
         <ItemData ItemOID="SE.SESEQ" Value="3"/>
         <ItemData ItemOID="SE.ETCD" Value="HIS"/>
         <ItemData ItemOID="SE.ELEMENT" Value="High_Start"/>
         <ItemData ItemOID="SE.SESTDTC" Value="2014-01-04"/>
         <ItemData ItemOID="SE.SEENDTC" Value="2014-01-25"/>
      </ItemGroupData>
      <ItemGroupData data:ItemGroupDataSeq="285" ItemGroupOID="SE">
         <ItemData ItemOID="SE.STUDYID" Value="CDISCPILOT01"/>
         <ItemData ItemOID="SE.DOMAIN" Value="SE"/>
         <ItemData ItemOID="SE.USUBJID" Value="01-705-1377"/>
         <ItemData ItemOID="SE.SESEQ" Value="4"/>
         <ItemData ItemOID="SE.ETCD" Value="HIM"/>
         <ItemData ItemOID="SE.ELEMENT" Value="High_Middle"/>
         <ItemData ItemOID="SE.SESTDTC" Value="2014-01-25"/>
         <ItemData ItemOID="SE.SEENDTC" Value="2014-03-07"/>
      </ItemGroupData>
      <ItemGroupData data:ItemGroupDataSeq="286" ItemGroupOID="SE">
         <ItemData ItemOID="SE.STUDYID" Value="CDISCPILOT01"/>
         <ItemData ItemOID="SE.DOMAIN" Value="SE"/>
         <ItemData ItemOID="SE.USUBJID" Value="01-705-1382"/>
         <ItemData ItemOID="SE.SESEQ" Value="1"/>
         <ItemData ItemOID="SE.ETCD" Value="SCRN"/>
         <ItemData ItemOID="SE.ELEMENT" Value="Screen"/>
         <ItemData ItemOID="SE.SESTDTC" Value="2013-05-09"/>
         <ItemData ItemOID="SE.SEENDTC" Value="2013-05-13"/>
      </ItemGroupData>
      <ItemGroupData data:ItemGroupDataSeq="287" ItemGroupOID="SE">
         <ItemData ItemOID="SE.STUDYID" Value="CDISCPILOT01"/>
         <ItemData ItemOID="SE.DOMAIN" Value="SE"/>
         <ItemData ItemOID="SE.USUBJID" Value="01-705-1382"/>
         <ItemData ItemOID="SE.SESEQ" Value="3"/>
         <ItemData ItemOID="SE.ETCD" Value="HIS"/>
         <ItemData ItemOID="SE.ELEMENT" Value="High_Start"/>
         <ItemData ItemOID="SE.SESTDTC" Value="2013-05-13"/>
         <ItemData ItemOID="SE.SEENDTC" Value="2013-05-13"/>
      </ItemGroupData>
      <ItemGroupData data:ItemGroupDataSeq="288" ItemGroupOID="SE">
         <ItemData ItemOID="SE.STUDYID" Value="CDISCPILOT01"/>
         <ItemData ItemOID="SE.DOMAIN" Value="SE"/>
         <ItemData ItemOID="SE.USUBJID" Value="01-705-1393"/>
         <ItemData ItemOID="SE.SESEQ" Value="1"/>
         <ItemData ItemOID="SE.ETCD" Value="SCRN"/>
         <ItemData ItemOID="SE.ELEMENT" Value="Screen"/>
         <ItemData ItemOID="SE.SESTDTC" Value="2012-09-02"/>
         <ItemData ItemOID="SE.SEENDTC" Value="2012-09-07"/>
      </ItemGroupData>
      <ItemGroupData data:ItemGroupDataSeq="289" ItemGroupOID="SE">
         <ItemData ItemOID="SE.STUDYID" Value="CDISCPILOT01"/>
         <ItemData ItemOID="SE.DOMAIN" Value="SE"/>
         <ItemData ItemOID="SE.USUBJID" Value="01-705-1393"/>
         <ItemData ItemOID="SE.SESEQ" Value="4"/>
         <ItemData ItemOID="SE.ETCD" Value="LO"/>
         <ItemData ItemOID="SE.ELEMENT" Value="Low"/>
         <ItemData ItemOID="SE.SESTDTC" Value="2012-09-07"/>
         <ItemData ItemOID="SE.SEENDTC" Value="2013-02-20"/>
      </ItemGroupData>
      <ItemGroupData data:ItemGroupDataSeq="290" ItemGroupOID="SE">
         <ItemData ItemOID="SE.STUDYID" Value="CDISCPILOT01"/>
         <ItemData ItemOID="SE.DOMAIN" Value="SE"/>
         <ItemData ItemOID="SE.USUBJID" Value="01-705-1393"/>
         <ItemData ItemOID="SE.SESEQ" Value="6"/>
         <ItemData ItemOID="SE.ETCD" Value="FOLO"/>
         <ItemData ItemOID="SE.ELEMENT" Value="Follow_up"/>
         <ItemData ItemOID="SE.SESTDTC" Value="2013-02-20"/>
         <ItemData ItemOID="SE.SEENDTC" Value="2013-04-25"/>
      </ItemGroupData>
      <ItemGroupData data:ItemGroupDataSeq="291" ItemGroupOID="SE">
         <ItemData ItemOID="SE.STUDYID" Value="CDISCPILOT01"/>
         <ItemData ItemOID="SE.DOMAIN" Value="SE"/>
         <ItemData ItemOID="SE.USUBJID" Value="01-705-1421"/>
         <ItemData ItemOID="SE.SESEQ" Value="1"/>
         <ItemData ItemOID="SE.ETCD" Value="SCRN"/>
         <ItemData ItemOID="SE.ELEMENT" Value="Screen"/>
         <ItemData ItemOID="SE.SESTDTC" Value="2013-01-14"/>
         <ItemData ItemOID="SE.SEENDTC" Value="2013-01-16"/>
      </ItemGroupData>
      <ItemGroupData data:ItemGroupDataSeq="292" ItemGroupOID="SE">
         <ItemData ItemOID="SE.STUDYID" Value="CDISCPILOT01"/>
         <ItemData ItemOID="SE.DOMAIN" Value="SE"/>
         <ItemData ItemOID="SE.USUBJID" Value="01-705-1431"/>
         <ItemData ItemOID="SE.SESEQ" Value="1"/>
         <ItemData ItemOID="SE.ETCD" Value="SCRN"/>
         <ItemData ItemOID="SE.ELEMENT" Value="Screen"/>
         <ItemData ItemOID="SE.SESTDTC" Value="2013-06-16"/>
         <ItemData ItemOID="SE.SEENDTC" Value="2013-06-23"/>
      </ItemGroupData>
      <ItemGroupData data:ItemGroupDataSeq="293" ItemGroupOID="SE">
         <ItemData ItemOID="SE.STUDYID" Value="CDISCPILOT01"/>
         <ItemData ItemOID="SE.DOMAIN" Value="SE"/>
         <ItemData ItemOID="SE.USUBJID" Value="01-705-1431"/>
         <ItemData ItemOID="SE.SESEQ" Value="4"/>
         <ItemData ItemOID="SE.ETCD" Value="LO"/>
         <ItemData ItemOID="SE.ELEMENT" Value="Low"/>
         <ItemData ItemOID="SE.SESTDTC" Value="2013-06-23"/>
         <ItemData ItemOID="SE.SEENDTC" Value="2013-12-19"/>
      </ItemGroupData>
      <ItemGroupData data:ItemGroupDataSeq="294" ItemGroupOID="SE">
         <ItemData ItemOID="SE.STUDYID" Value="CDISCPILOT01"/>
         <ItemData ItemOID="SE.DOMAIN" Value="SE"/>
         <ItemData ItemOID="SE.USUBJID" Value="01-706-1041"/>
         <ItemData ItemOID="SE.SESEQ" Value="1"/>
         <ItemData ItemOID="SE.ETCD" Value="SCRN"/>
         <ItemData ItemOID="SE.ELEMENT" Value="Screen"/>
         <ItemData ItemOID="SE.SESTDTC" Value="2013-12-21"/>
         <ItemData ItemOID="SE.SEENDTC" Value="2013-12-31"/>
      </ItemGroupData>
      <ItemGroupData data:ItemGroupDataSeq="295" ItemGroupOID="SE">
         <ItemData ItemOID="SE.STUDYID" Value="CDISCPILOT01"/>
         <ItemData ItemOID="SE.DOMAIN" Value="SE"/>
         <ItemData ItemOID="SE.USUBJID" Value="01-706-1041"/>
         <ItemData ItemOID="SE.SESEQ" Value="4"/>
         <ItemData ItemOID="SE.ETCD" Value="PBO"/>
         <ItemData ItemOID="SE.ELEMENT" Value="Placebo"/>
         <ItemData ItemOID="SE.SESTDTC" Value="2013-12-31"/>
         <ItemData ItemOID="SE.SEENDTC" Value="2014-07-29"/>
      </ItemGroupData>
      <ItemGroupData data:ItemGroupDataSeq="296" ItemGroupOID="SE">
         <ItemData ItemOID="SE.STUDYID" Value="CDISCPILOT01"/>
         <ItemData ItemOID="SE.DOMAIN" Value="SE"/>
         <ItemData ItemOID="SE.USUBJID" Value="01-706-1049"/>
         <ItemData ItemOID="SE.SESEQ" Value="1"/>
         <ItemData ItemOID="SE.ETCD" Value="SCRN"/>
         <ItemData ItemOID="SE.ELEMENT" Value="Screen"/>
         <ItemData ItemOID="SE.SESTDTC" Value="2013-04-30"/>
         <ItemData ItemOID="SE.SEENDTC" Value="2013-05-14"/>
      </ItemGroupData>
      <ItemGroupData data:ItemGroupDataSeq="297" ItemGroupOID="SE">
         <ItemData ItemOID="SE.STUDYID" Value="CDISCPILOT01"/>
         <ItemData ItemOID="SE.DOMAIN" Value="SE"/>
         <ItemData ItemOID="SE.USUBJID" Value="01-706-1049"/>
         <ItemData ItemOID="SE.SESEQ" Value="3"/>
         <ItemData ItemOID="SE.ETCD" Value="HIS"/>
         <ItemData ItemOID="SE.ELEMENT" Value="High_Start"/>
         <ItemData ItemOID="SE.SESTDTC" Value="2013-05-14"/>
         <ItemData ItemOID="SE.SEENDTC" Value="2013-05-28"/>
      </ItemGroupData>
      <ItemGroupData data:ItemGroupDataSeq="298" ItemGroupOID="SE">
         <ItemData ItemOID="SE.STUDYID" Value="CDISCPILOT01"/>
         <ItemData ItemOID="SE.DOMAIN" Value="SE"/>
         <ItemData ItemOID="SE.USUBJID" Value="01-706-1049"/>
         <ItemData ItemOID="SE.SESEQ" Value="4"/>
         <ItemData ItemOID="SE.ETCD" Value="HIM"/>
         <ItemData ItemOID="SE.ELEMENT" Value="High_Middle"/>
         <ItemData ItemOID="SE.SESTDTC" Value="2013-05-28"/>
         <ItemData ItemOID="SE.SEENDTC" Value="2013-06-25"/>
      </ItemGroupData>
      <ItemGroupData data:ItemGroupDataSeq="299" ItemGroupOID="SE">
         <ItemData ItemOID="SE.STUDYID" Value="CDISCPILOT01"/>
         <ItemData ItemOID="SE.DOMAIN" Value="SE"/>
         <ItemData ItemOID="SE.USUBJID" Value="01-706-1049"/>
         <ItemData ItemOID="SE.SESEQ" Value="6"/>
         <ItemData ItemOID="SE.ETCD" Value="FOLO"/>
         <ItemData ItemOID="SE.ELEMENT" Value="Follow_up"/>
         <ItemData ItemOID="SE.SESTDTC" Value="2013-06-25"/>
         <ItemData ItemOID="SE.SEENDTC" Value="2013-11-26"/>
      </ItemGroupData>
      <ItemGroupData data:ItemGroupDataSeq="300" ItemGroupOID="SE">
         <ItemData ItemOID="SE.STUDYID" Value="CDISCPILOT01"/>
         <ItemData ItemOID="SE.DOMAIN" Value="SE"/>
         <ItemData ItemOID="SE.USUBJID" Value="01-706-1384"/>
         <ItemData ItemOID="SE.SESEQ" Value="1"/>
         <ItemData ItemOID="SE.ETCD" Value="SCRN"/>
         <ItemData ItemOID="SE.ELEMENT" Value="Screen"/>
         <ItemData ItemOID="SE.SESTDTC" Value="2012-08-25"/>
         <ItemData ItemOID="SE.SEENDTC" Value="2012-09-15"/>
      </ItemGroupData>
      <ItemGroupData data:ItemGroupDataSeq="301" ItemGroupOID="SE">
         <ItemData ItemOID="SE.STUDYID" Value="CDISCPILOT01"/>
         <ItemData ItemOID="SE.DOMAIN" Value="SE"/>
         <ItemData ItemOID="SE.USUBJID" Value="01-706-1384"/>
         <ItemData ItemOID="SE.SESEQ" Value="4"/>
         <ItemData ItemOID="SE.ETCD" Value="LO"/>
         <ItemData ItemOID="SE.ELEMENT" Value="Low"/>
         <ItemData ItemOID="SE.SESTDTC" Value="2012-09-15"/>
         <ItemData ItemOID="SE.SEENDTC" Value="2012-09-29"/>
      </ItemGroupData>
      <ItemGroupData data:ItemGroupDataSeq="302" ItemGroupOID="SE">
         <ItemData ItemOID="SE.STUDYID" Value="CDISCPILOT01"/>
         <ItemData ItemOID="SE.DOMAIN" Value="SE"/>
         <ItemData ItemOID="SE.USUBJID" Value="01-706-1384"/>
         <ItemData ItemOID="SE.SESEQ" Value="6"/>
         <ItemData ItemOID="SE.ETCD" Value="FOLO"/>
         <ItemData ItemOID="SE.ELEMENT" Value="Follow_up"/>
         <ItemData ItemOID="SE.SESTDTC" Value="2012-09-29"/>
         <ItemData ItemOID="SE.SEENDTC" Value="2013-06-22"/>
      </ItemGroupData>
      <ItemGroupData data:ItemGroupDataSeq="303" ItemGroupOID="SE">
         <ItemData ItemOID="SE.STUDYID" Value="CDISCPILOT01"/>
         <ItemData ItemOID="SE.DOMAIN" Value="SE"/>
         <ItemData ItemOID="SE.USUBJID" Value="01-707-1037"/>
         <ItemData ItemOID="SE.SESEQ" Value="1"/>
         <ItemData ItemOID="SE.ETCD" Value="SCRN"/>
         <ItemData ItemOID="SE.ELEMENT" Value="Screen"/>
         <ItemData ItemOID="SE.SESTDTC" Value="2013-12-12"/>
         <ItemData ItemOID="SE.SEENDTC" Value="2013-12-20"/>
      </ItemGroupData>
      <ItemGroupData data:ItemGroupDataSeq="304" ItemGroupOID="SE">
         <ItemData ItemOID="SE.STUDYID" Value="CDISCPILOT01"/>
         <ItemData ItemOID="SE.DOMAIN" Value="SE"/>
         <ItemData ItemOID="SE.USUBJID" Value="01-707-1037"/>
         <ItemData ItemOID="SE.SESEQ" Value="4"/>
         <ItemData ItemOID="SE.ETCD" Value="LO"/>
         <ItemData ItemOID="SE.ELEMENT" Value="Low"/>
         <ItemData ItemOID="SE.SESTDTC" Value="2013-12-20"/>
         <ItemData ItemOID="SE.SEENDTC" Value="2014-01-08"/>
      </ItemGroupData>
      <ItemGroupData data:ItemGroupDataSeq="305" ItemGroupOID="SE">
         <ItemData ItemOID="SE.STUDYID" Value="CDISCPILOT01"/>
         <ItemData ItemOID="SE.DOMAIN" Value="SE"/>
         <ItemData ItemOID="SE.USUBJID" Value="01-707-1206"/>
         <ItemData ItemOID="SE.SESEQ" Value="1"/>
         <ItemData ItemOID="SE.ETCD" Value="SCRN"/>
         <ItemData ItemOID="SE.ELEMENT" Value="Screen"/>
         <ItemData ItemOID="SE.SESTDTC" Value="2013-10-20"/>
         <ItemData ItemOID="SE.SEENDTC" Value="2013-10-28"/>
      </ItemGroupData>
      <ItemGroupData data:ItemGroupDataSeq="306" ItemGroupOID="SE">
         <ItemData ItemOID="SE.STUDYID" Value="CDISCPILOT01"/>
         <ItemData ItemOID="SE.DOMAIN" Value="SE"/>
         <ItemData ItemOID="SE.USUBJID" Value="01-707-1206"/>
         <ItemData ItemOID="SE.SESEQ" Value="4"/>
         <ItemData ItemOID="SE.ETCD" Value="PBO"/>
         <ItemData ItemOID="SE.ELEMENT" Value="Placebo"/>
         <ItemData ItemOID="SE.SESTDTC" Value="2013-10-28"/>
         <ItemData ItemOID="SE.SEENDTC" Value="2014-04-27"/>
      </ItemGroupData>
      <ItemGroupData data:ItemGroupDataSeq="307" ItemGroupOID="SE">
         <ItemData ItemOID="SE.STUDYID" Value="CDISCPILOT01"/>
         <ItemData ItemOID="SE.DOMAIN" Value="SE"/>
         <ItemData ItemOID="SE.USUBJID" Value="01-707-1276"/>
         <ItemData ItemOID="SE.SESEQ" Value="1"/>
         <ItemData ItemOID="SE.ETCD" Value="SCRN"/>
         <ItemData ItemOID="SE.ELEMENT" Value="Screen"/>
         <ItemData ItemOID="SE.SESTDTC" Value="2012-10-12"/>
         <ItemData ItemOID="SE.SEENDTC" Value="2012-10-29"/>
      </ItemGroupData>
      <ItemGroupData data:ItemGroupDataSeq="308" ItemGroupOID="SE">
         <ItemData ItemOID="SE.STUDYID" Value="CDISCPILOT01"/>
         <ItemData ItemOID="SE.DOMAIN" Value="SE"/>
         <ItemData ItemOID="SE.USUBJID" Value="01-707-1430"/>
         <ItemData ItemOID="SE.SESEQ" Value="1"/>
         <ItemData ItemOID="SE.ETCD" Value="SCRN"/>
         <ItemData ItemOID="SE.ELEMENT" Value="Screen"/>
         <ItemData ItemOID="SE.SESTDTC" Value="2014-02-14"/>
         <ItemData ItemOID="SE.SEENDTC" Value="2014-02-15"/>
      </ItemGroupData>
      <ItemGroupData data:ItemGroupDataSeq="309" ItemGroupOID="SE">
         <ItemData ItemOID="SE.STUDYID" Value="CDISCPILOT01"/>
         <ItemData ItemOID="SE.DOMAIN" Value="SE"/>
         <ItemData ItemOID="SE.USUBJID" Value="01-707-1434"/>
         <ItemData ItemOID="SE.SESEQ" Value="1"/>
         <ItemData ItemOID="SE.ETCD" Value="SCRN"/>
         <ItemData ItemOID="SE.ELEMENT" Value="Screen"/>
         <ItemData ItemOID="SE.SESTDTC" Value="2013-07-25"/>
         <ItemData ItemOID="SE.SEENDTC" Value="2013-07-29"/>
      </ItemGroupData>
      <ItemGroupData data:ItemGroupDataSeq="310" ItemGroupOID="SE">
         <ItemData ItemOID="SE.STUDYID" Value="CDISCPILOT01"/>
         <ItemData ItemOID="SE.DOMAIN" Value="SE"/>
         <ItemData ItemOID="SE.USUBJID" Value="01-708-1013"/>
         <ItemData ItemOID="SE.SESEQ" Value="1"/>
         <ItemData ItemOID="SE.ETCD" Value="SCRN"/>
         <ItemData ItemOID="SE.ELEMENT" Value="Screen"/>
         <ItemData ItemOID="SE.SESTDTC" Value="2012-10-13"/>
         <ItemData ItemOID="SE.SEENDTC" Value="2012-11-09"/>
      </ItemGroupData>
      <ItemGroupData data:ItemGroupDataSeq="311" ItemGroupOID="SE">
         <ItemData ItemOID="SE.STUDYID" Value="CDISCPILOT01"/>
         <ItemData ItemOID="SE.DOMAIN" Value="SE"/>
         <ItemData ItemOID="SE.USUBJID" Value="01-708-1019"/>
         <ItemData ItemOID="SE.SESEQ" Value="1"/>
         <ItemData ItemOID="SE.ETCD" Value="SCRN"/>
         <ItemData ItemOID="SE.ELEMENT" Value="Screen"/>
         <ItemData ItemOID="SE.SESTDTC" Value="2013-12-10"/>
         <ItemData ItemOID="SE.SEENDTC" Value="2013-12-20"/>
      </ItemGroupData>
      <ItemGroupData data:ItemGroupDataSeq="312" ItemGroupOID="SE">
         <ItemData ItemOID="SE.STUDYID" Value="CDISCPILOT01"/>
         <ItemData ItemOID="SE.DOMAIN" Value="SE"/>
         <ItemData ItemOID="SE.USUBJID" Value="01-708-1019"/>
         <ItemData ItemOID="SE.SESEQ" Value="4"/>
         <ItemData ItemOID="SE.ETCD" Value="LO"/>
         <ItemData ItemOID="SE.ELEMENT" Value="Low"/>
         <ItemData ItemOID="SE.SESTDTC" Value="2013-12-20"/>
         <ItemData ItemOID="SE.SEENDTC" Value="2014-01-23"/>
      </ItemGroupData>
      <ItemGroupData data:ItemGroupDataSeq="313" ItemGroupOID="SE">
         <ItemData ItemOID="SE.STUDYID" Value="CDISCPILOT01"/>
         <ItemData ItemOID="SE.DOMAIN" Value="SE"/>
         <ItemData ItemOID="SE.USUBJID" Value="01-708-1032"/>
         <ItemData ItemOID="SE.SESEQ" Value="1"/>
         <ItemData ItemOID="SE.ETCD" Value="SCRN"/>
         <ItemData ItemOID="SE.ELEMENT" Value="Screen"/>
         <ItemData ItemOID="SE.SESTDTC" Value="2013-02-02"/>
         <ItemData ItemOID="SE.SEENDTC" Value="2013-02-09"/>
      </ItemGroupData>
      <ItemGroupData data:ItemGroupDataSeq="314" ItemGroupOID="SE">
         <ItemData ItemOID="SE.STUDYID" Value="CDISCPILOT01"/>
         <ItemData ItemOID="SE.DOMAIN" Value="SE"/>
         <ItemData ItemOID="SE.USUBJID" Value="01-708-1032"/>
         <ItemData ItemOID="SE.SESEQ" Value="4"/>
         <ItemData ItemOID="SE.ETCD" Value="LO"/>
         <ItemData ItemOID="SE.ELEMENT" Value="Low"/>
         <ItemData ItemOID="SE.SESTDTC" Value="2013-02-09"/>
         <ItemData ItemOID="SE.SEENDTC" Value="2013-03-09"/>
      </ItemGroupData>
      <ItemGroupData data:ItemGroupDataSeq="315" ItemGroupOID="SE">
         <ItemData ItemOID="SE.STUDYID" Value="CDISCPILOT01"/>
         <ItemData ItemOID="SE.DOMAIN" Value="SE"/>
         <ItemData ItemOID="SE.USUBJID" Value="01-708-1054"/>
         <ItemData ItemOID="SE.SESEQ" Value="1"/>
         <ItemData ItemOID="SE.ETCD" Value="SCRN"/>
         <ItemData ItemOID="SE.ELEMENT" Value="Screen"/>
         <ItemData ItemOID="SE.SESTDTC" Value="2014-02-14"/>
         <ItemData ItemOID="SE.SEENDTC" Value="2014-03-05"/>
      </ItemGroupData>
      <ItemGroupData data:ItemGroupDataSeq="316" ItemGroupOID="SE">
         <ItemData ItemOID="SE.STUDYID" Value="CDISCPILOT01"/>
         <ItemData ItemOID="SE.DOMAIN" Value="SE"/>
         <ItemData ItemOID="SE.USUBJID" Value="01-708-1067"/>
         <ItemData ItemOID="SE.SESEQ" Value="1"/>
         <ItemData ItemOID="SE.ETCD" Value="SCRN"/>
         <ItemData ItemOID="SE.ELEMENT" Value="Screen"/>
         <ItemData ItemOID="SE.SESTDTC" Value="2013-02-07"/>
         <ItemData ItemOID="SE.SEENDTC" Value="2013-03-07"/>
      </ItemGroupData>
      <ItemGroupData data:ItemGroupDataSeq="317" ItemGroupOID="SE">
         <ItemData ItemOID="SE.STUDYID" Value="CDISCPILOT01"/>
         <ItemData ItemOID="SE.DOMAIN" Value="SE"/>
         <ItemData ItemOID="SE.USUBJID" Value="01-708-1067"/>
         <ItemData ItemOID="SE.SESEQ" Value="2"/>
         <ItemData ItemOID="SE.ETCD" Value="UNPLAN"/>
         <ItemData ItemOID="SE.SESTDTC" Value="2013-03-07"/>
         <ItemData ItemOID="SE.SEENDTC" Value="2013-03-07"/>
         <ItemData ItemOID="SE.SEUPDES" Value="Unknown reason for Visit 4"/>
      </ItemGroupData>
      <ItemGroupData data:ItemGroupDataSeq="318" ItemGroupOID="SE">
         <ItemData ItemOID="SE.STUDYID" Value="CDISCPILOT01"/>
         <ItemData ItemOID="SE.DOMAIN" Value="SE"/>
         <ItemData ItemOID="SE.USUBJID" Value="01-708-1084"/>
         <ItemData ItemOID="SE.SESEQ" Value="1"/>
         <ItemData ItemOID="SE.ETCD" Value="SCRN"/>
         <ItemData ItemOID="SE.ELEMENT" Value="Screen"/>
         <ItemData ItemOID="SE.SESTDTC" Value="2013-05-01"/>
         <ItemData ItemOID="SE.SEENDTC" Value="2013-05-09"/>
      </ItemGroupData>
      <ItemGroupData data:ItemGroupDataSeq="319" ItemGroupOID="SE">
         <ItemData ItemOID="SE.STUDYID" Value="CDISCPILOT01"/>
         <ItemData ItemOID="SE.DOMAIN" Value="SE"/>
         <ItemData ItemOID="SE.USUBJID" Value="01-708-1084"/>
         <ItemData ItemOID="SE.SESEQ" Value="4"/>
         <ItemData ItemOID="SE.ETCD" Value="LO"/>
         <ItemData ItemOID="SE.ELEMENT" Value="Low"/>
         <ItemData ItemOID="SE.SESTDTC" Value="2013-05-09"/>
         <ItemData ItemOID="SE.SEENDTC" Value="2013-11-11"/>
      </ItemGroupData>
      <ItemGroupData data:ItemGroupDataSeq="320" ItemGroupOID="SE">
         <ItemData ItemOID="SE.STUDYID" Value="CDISCPILOT01"/>
         <ItemData ItemOID="SE.DOMAIN" Value="SE"/>
         <ItemData ItemOID="SE.USUBJID" Value="01-708-1087"/>
         <ItemData ItemOID="SE.SESEQ" Value="1"/>
         <ItemData ItemOID="SE.ETCD" Value="SCRN"/>
         <ItemData ItemOID="SE.ELEMENT" Value="Screen"/>
         <ItemData ItemOID="SE.SESTDTC" Value="2012-10-06"/>
         <ItemData ItemOID="SE.SEENDTC" Value="2012-10-22"/>
      </ItemGroupData>
      <ItemGroupData data:ItemGroupDataSeq="321" ItemGroupOID="SE">
         <ItemData ItemOID="SE.STUDYID" Value="CDISCPILOT01"/>
         <ItemData ItemOID="SE.DOMAIN" Value="SE"/>
         <ItemData ItemOID="SE.USUBJID" Value="01-708-1087"/>
         <ItemData ItemOID="SE.SESEQ" Value="4"/>
         <ItemData ItemOID="SE.ETCD" Value="PBO"/>
         <ItemData ItemOID="SE.ELEMENT" Value="Placebo"/>
         <ItemData ItemOID="SE.SESTDTC" Value="2012-10-22"/>
         <ItemData ItemOID="SE.SEENDTC" Value="2013-04-28"/>
      </ItemGroupData>
      <ItemGroupData data:ItemGroupDataSeq="322" ItemGroupOID="SE">
         <ItemData ItemOID="SE.STUDYID" Value="CDISCPILOT01"/>
         <ItemData ItemOID="SE.DOMAIN" Value="SE"/>
         <ItemData ItemOID="SE.USUBJID" Value="01-708-1104"/>
         <ItemData ItemOID="SE.SESEQ" Value="1"/>
         <ItemData ItemOID="SE.ETCD" Value="SCRN"/>
         <ItemData ItemOID="SE.ELEMENT" Value="Screen"/>
         <ItemData ItemOID="SE.SESTDTC" Value="2014-01-23"/>
         <ItemData ItemOID="SE.SEENDTC" Value="2014-01-23"/>
      </ItemGroupData>
      <ItemGroupData data:ItemGroupDataSeq="323" ItemGroupOID="SE">
         <ItemData ItemOID="SE.STUDYID" Value="CDISCPILOT01"/>
         <ItemData ItemOID="SE.DOMAIN" Value="SE"/>
         <ItemData ItemOID="SE.USUBJID" Value="01-708-1158"/>
         <ItemData ItemOID="SE.SESEQ" Value="1"/>
         <ItemData ItemOID="SE.ETCD" Value="SCRN"/>
         <ItemData ItemOID="SE.ELEMENT" Value="Screen"/>
         <ItemData ItemOID="SE.SESTDTC" Value="2014-02-01"/>
         <ItemData ItemOID="SE.SEENDTC" Value="2014-02-08"/>
      </ItemGroupData>
      <ItemGroupData data:ItemGroupDataSeq="324" ItemGroupOID="SE">
         <ItemData ItemOID="SE.STUDYID" Value="CDISCPILOT01"/>
         <ItemData ItemOID="SE.DOMAIN" Value="SE"/>
         <ItemData ItemOID="SE.USUBJID" Value="01-708-1158"/>
         <ItemData ItemOID="SE.SESEQ" Value="4"/>
         <ItemData ItemOID="SE.ETCD" Value="PBO"/>
         <ItemData ItemOID="SE.ELEMENT" Value="Placebo"/>
         <ItemData ItemOID="SE.SESTDTC" Value="2014-02-08"/>
         <ItemData ItemOID="SE.SEENDTC" Value="2014-03-22"/>
      </ItemGroupData>
      <ItemGroupData data:ItemGroupDataSeq="325" ItemGroupOID="SE">
         <ItemData ItemOID="SE.STUDYID" Value="CDISCPILOT01"/>
         <ItemData ItemOID="SE.DOMAIN" Value="SE"/>
         <ItemData ItemOID="SE.USUBJID" Value="01-708-1171"/>
         <ItemData ItemOID="SE.SESEQ" Value="1"/>
         <ItemData ItemOID="SE.ETCD" Value="SCRN"/>
         <ItemData ItemOID="SE.ELEMENT" Value="Screen"/>
         <ItemData ItemOID="SE.SESTDTC" Value="2012-11-25"/>
         <ItemData ItemOID="SE.SEENDTC" Value="2012-12-06"/>
      </ItemGroupData>
      <ItemGroupData data:ItemGroupDataSeq="326" ItemGroupOID="SE">
         <ItemData ItemOID="SE.STUDYID" Value="CDISCPILOT01"/>
         <ItemData ItemOID="SE.DOMAIN" Value="SE"/>
         <ItemData ItemOID="SE.USUBJID" Value="01-708-1171"/>
         <ItemData ItemOID="SE.SESEQ" Value="4"/>
         <ItemData ItemOID="SE.ETCD" Value="PBO"/>
         <ItemData ItemOID="SE.ELEMENT" Value="Placebo"/>
         <ItemData ItemOID="SE.SESTDTC" Value="2012-12-06"/>
         <ItemData ItemOID="SE.SEENDTC" Value="2013-06-04"/>
      </ItemGroupData>
      <ItemGroupData data:ItemGroupDataSeq="327" ItemGroupOID="SE">
         <ItemData ItemOID="SE.STUDYID" Value="CDISCPILOT01"/>
         <ItemData ItemOID="SE.DOMAIN" Value="SE"/>
         <ItemData ItemOID="SE.USUBJID" Value="01-708-1178"/>
         <ItemData ItemOID="SE.SESEQ" Value="1"/>
         <ItemData ItemOID="SE.ETCD" Value="SCRN"/>
         <ItemData ItemOID="SE.ELEMENT" Value="Screen"/>
         <ItemData ItemOID="SE.SESTDTC" Value="2013-12-13"/>
         <ItemData ItemOID="SE.SEENDTC" Value="2013-12-29"/>
      </ItemGroupData>
      <ItemGroupData data:ItemGroupDataSeq="328" ItemGroupOID="SE">
         <ItemData ItemOID="SE.STUDYID" Value="CDISCPILOT01"/>
         <ItemData ItemOID="SE.DOMAIN" Value="SE"/>
         <ItemData ItemOID="SE.USUBJID" Value="01-708-1178"/>
         <ItemData ItemOID="SE.SESEQ" Value="3"/>
         <ItemData ItemOID="SE.ETCD" Value="HIS"/>
         <ItemData ItemOID="SE.ELEMENT" Value="High_Start"/>
         <ItemData ItemOID="SE.SESTDTC" Value="2013-12-29"/>
         <ItemData ItemOID="SE.SEENDTC" Value="2014-01-18"/>
      </ItemGroupData>
      <ItemGroupData data:ItemGroupDataSeq="329" ItemGroupOID="SE">
         <ItemData ItemOID="SE.STUDYID" Value="CDISCPILOT01"/>
         <ItemData ItemOID="SE.DOMAIN" Value="SE"/>
         <ItemData ItemOID="SE.USUBJID" Value="01-708-1178"/>
         <ItemData ItemOID="SE.SESEQ" Value="4"/>
         <ItemData ItemOID="SE.ETCD" Value="HIM"/>
         <ItemData ItemOID="SE.ELEMENT" Value="High_Middle"/>
         <ItemData ItemOID="SE.SESTDTC" Value="2014-01-18"/>
         <ItemData ItemOID="SE.SEENDTC" Value="2014-04-06"/>
      </ItemGroupData>
      <ItemGroupData data:ItemGroupDataSeq="330" ItemGroupOID="SE">
         <ItemData ItemOID="SE.STUDYID" Value="CDISCPILOT01"/>
         <ItemData ItemOID="SE.DOMAIN" Value="SE"/>
         <ItemData ItemOID="SE.USUBJID" Value="01-708-1184"/>
         <ItemData ItemOID="SE.SESEQ" Value="1"/>
         <ItemData ItemOID="SE.ETCD" Value="SCRN"/>
         <ItemData ItemOID="SE.ELEMENT" Value="Screen"/>
         <ItemData ItemOID="SE.SESTDTC" Value="2013-01-14"/>
         <ItemData ItemOID="SE.SEENDTC" Value="2013-02-03"/>
      </ItemGroupData>
      <ItemGroupData data:ItemGroupDataSeq="331" ItemGroupOID="SE">
         <ItemData ItemOID="SE.STUDYID" Value="CDISCPILOT01"/>
         <ItemData ItemOID="SE.DOMAIN" Value="SE"/>
         <ItemData ItemOID="SE.USUBJID" Value="01-708-1213"/>
         <ItemData ItemOID="SE.SESEQ" Value="1"/>
         <ItemData ItemOID="SE.ETCD" Value="SCRN"/>
         <ItemData ItemOID="SE.ELEMENT" Value="Screen"/>
         <ItemData ItemOID="SE.SESTDTC" Value="2013-02-01"/>
         <ItemData ItemOID="SE.SEENDTC" Value="2013-02-09"/>
      </ItemGroupData>
      <ItemGroupData data:ItemGroupDataSeq="332" ItemGroupOID="SE">
         <ItemData ItemOID="SE.STUDYID" Value="CDISCPILOT01"/>
         <ItemData ItemOID="SE.DOMAIN" Value="SE"/>
         <ItemData ItemOID="SE.USUBJID" Value="01-708-1213"/>
         <ItemData ItemOID="SE.SESEQ" Value="3"/>
         <ItemData ItemOID="SE.ETCD" Value="HIS"/>
         <ItemData ItemOID="SE.ELEMENT" Value="High_Start"/>
         <ItemData ItemOID="SE.SESTDTC" Value="2013-02-09"/>
         <ItemData ItemOID="SE.SEENDTC" Value="2013-02-22"/>
      </ItemGroupData>
      <ItemGroupData data:ItemGroupDataSeq="333" ItemGroupOID="SE">
         <ItemData ItemOID="SE.STUDYID" Value="CDISCPILOT01"/>
         <ItemData ItemOID="SE.DOMAIN" Value="SE"/>
         <ItemData ItemOID="SE.USUBJID" Value="01-708-1213"/>
         <ItemData ItemOID="SE.SESEQ" Value="4"/>
         <ItemData ItemOID="SE.ETCD" Value="HIM"/>
         <ItemData ItemOID="SE.ELEMENT" Value="High_Middle"/>
         <ItemData ItemOID="SE.SESTDTC" Value="2013-02-22"/>
         <ItemData ItemOID="SE.SEENDTC" Value="2013-02-26"/>
      </ItemGroupData>
      <ItemGroupData data:ItemGroupDataSeq="334" ItemGroupOID="SE">
         <ItemData ItemOID="SE.STUDYID" Value="CDISCPILOT01"/>
         <ItemData ItemOID="SE.DOMAIN" Value="SE"/>
         <ItemData ItemOID="SE.USUBJID" Value="01-708-1216"/>
         <ItemData ItemOID="SE.SESEQ" Value="1"/>
         <ItemData ItemOID="SE.ETCD" Value="SCRN"/>
         <ItemData ItemOID="SE.ELEMENT" Value="Screen"/>
         <ItemData ItemOID="SE.SESTDTC" Value="2012-10-14"/>
         <ItemData ItemOID="SE.SEENDTC" Value="2012-10-24"/>
      </ItemGroupData>
      <ItemGroupData data:ItemGroupDataSeq="335" ItemGroupOID="SE">
         <ItemData ItemOID="SE.STUDYID" Value="CDISCPILOT01"/>
         <ItemData ItemOID="SE.DOMAIN" Value="SE"/>
         <ItemData ItemOID="SE.USUBJID" Value="01-708-1216"/>
         <ItemData ItemOID="SE.SESEQ" Value="3"/>
         <ItemData ItemOID="SE.ETCD" Value="HIS"/>
         <ItemData ItemOID="SE.ELEMENT" Value="High_Start"/>
         <ItemData ItemOID="SE.SESTDTC" Value="2012-10-24"/>
         <ItemData ItemOID="SE.SEENDTC" Value="2012-11-08"/>
      </ItemGroupData>
      <ItemGroupData data:ItemGroupDataSeq="336" ItemGroupOID="SE">
         <ItemData ItemOID="SE.STUDYID" Value="CDISCPILOT01"/>
         <ItemData ItemOID="SE.DOMAIN" Value="SE"/>
         <ItemData ItemOID="SE.USUBJID" Value="01-708-1216"/>
         <ItemData ItemOID="SE.SESEQ" Value="4"/>
         <ItemData ItemOID="SE.ETCD" Value="HIM"/>
         <ItemData ItemOID="SE.ELEMENT" Value="High_Middle"/>
         <ItemData ItemOID="SE.SESTDTC" Value="2012-11-08"/>
         <ItemData ItemOID="SE.SEENDTC" Value="2012-12-06"/>
      </ItemGroupData>
      <ItemGroupData data:ItemGroupDataSeq="337" ItemGroupOID="SE">
         <ItemData ItemOID="SE.STUDYID" Value="CDISCPILOT01"/>
         <ItemData ItemOID="SE.DOMAIN" Value="SE"/>
         <ItemData ItemOID="SE.USUBJID" Value="01-708-1216"/>
         <ItemData ItemOID="SE.SESEQ" Value="6"/>
         <ItemData ItemOID="SE.ETCD" Value="FOLO"/>
         <ItemData ItemOID="SE.ELEMENT" Value="Follow_up"/>
         <ItemData ItemOID="SE.SESTDTC" Value="2012-12-06"/>
         <ItemData ItemOID="SE.SEENDTC" Value="2013-01-09"/>
      </ItemGroupData>
      <ItemGroupData data:ItemGroupDataSeq="338" ItemGroupOID="SE">
         <ItemData ItemOID="SE.STUDYID" Value="CDISCPILOT01"/>
         <ItemData ItemOID="SE.DOMAIN" Value="SE"/>
         <ItemData ItemOID="SE.USUBJID" Value="01-708-1236"/>
         <ItemData ItemOID="SE.SESEQ" Value="1"/>
         <ItemData ItemOID="SE.ETCD" Value="SCRN"/>
         <ItemData ItemOID="SE.ELEMENT" Value="Screen"/>
         <ItemData ItemOID="SE.SESTDTC" Value="2013-09-08"/>
         <ItemData ItemOID="SE.SEENDTC" Value="2013-09-21"/>
      </ItemGroupData>
      <ItemGroupData data:ItemGroupDataSeq="339" ItemGroupOID="SE">
         <ItemData ItemOID="SE.STUDYID" Value="CDISCPILOT01"/>
         <ItemData ItemOID="SE.DOMAIN" Value="SE"/>
         <ItemData ItemOID="SE.USUBJID" Value="01-708-1236"/>
         <ItemData ItemOID="SE.SESEQ" Value="3"/>
         <ItemData ItemOID="SE.ETCD" Value="HIS"/>
         <ItemData ItemOID="SE.ELEMENT" Value="High_Start"/>
         <ItemData ItemOID="SE.SESTDTC" Value="2013-09-21"/>
         <ItemData ItemOID="SE.SEENDTC" Value="2013-09-26"/>
      </ItemGroupData>
      <ItemGroupData data:ItemGroupDataSeq="340" ItemGroupOID="SE">
         <ItemData ItemOID="SE.STUDYID" Value="CDISCPILOT01"/>
         <ItemData ItemOID="SE.DOMAIN" Value="SE"/>
         <ItemData ItemOID="SE.USUBJID" Value="01-708-1242"/>
         <ItemData ItemOID="SE.SESEQ" Value="1"/>
         <ItemData ItemOID="SE.ETCD" Value="SCRN"/>
         <ItemData ItemOID="SE.ELEMENT" Value="Screen"/>
         <ItemData ItemOID="SE.SESTDTC" Value="2012-08-13"/>
         <ItemData ItemOID="SE.SEENDTC" Value="2012-08-13"/>
      </ItemGroupData>
      <ItemGroupData data:ItemGroupDataSeq="341" ItemGroupOID="SE">
         <ItemData ItemOID="SE.STUDYID" Value="CDISCPILOT01"/>
         <ItemData ItemOID="SE.DOMAIN" Value="SE"/>
         <ItemData ItemOID="SE.USUBJID" Value="01-708-1253"/>
         <ItemData ItemOID="SE.SESEQ" Value="1"/>
         <ItemData ItemOID="SE.ETCD" Value="SCRN"/>
         <ItemData ItemOID="SE.ELEMENT" Value="Screen"/>
         <ItemData ItemOID="SE.SESTDTC" Value="2013-04-26"/>
         <ItemData ItemOID="SE.SEENDTC" Value="2013-05-07"/>
      </ItemGroupData>
      <ItemGroupData data:ItemGroupDataSeq="342" ItemGroupOID="SE">
         <ItemData ItemOID="SE.STUDYID" Value="CDISCPILOT01"/>
         <ItemData ItemOID="SE.DOMAIN" Value="SE"/>
         <ItemData ItemOID="SE.USUBJID" Value="01-708-1253"/>
         <ItemData ItemOID="SE.SESEQ" Value="4"/>
         <ItemData ItemOID="SE.ETCD" Value="PBO"/>
         <ItemData ItemOID="SE.ELEMENT" Value="Placebo"/>
         <ItemData ItemOID="SE.SESTDTC" Value="2013-05-07"/>
         <ItemData ItemOID="SE.SEENDTC" Value="2013-11-05"/>
      </ItemGroupData>
      <ItemGroupData data:ItemGroupDataSeq="343" ItemGroupOID="SE">
         <ItemData ItemOID="SE.STUDYID" Value="CDISCPILOT01"/>
         <ItemData ItemOID="SE.DOMAIN" Value="SE"/>
         <ItemData ItemOID="SE.USUBJID" Value="01-708-1272"/>
         <ItemData ItemOID="SE.SESEQ" Value="1"/>
         <ItemData ItemOID="SE.ETCD" Value="SCRN"/>
         <ItemData ItemOID="SE.ELEMENT" Value="Screen"/>
         <ItemData ItemOID="SE.SESTDTC" Value="2013-01-22"/>
         <ItemData ItemOID="SE.SEENDTC" Value="2013-02-06"/>
      </ItemGroupData>
      <ItemGroupData data:ItemGroupDataSeq="344" ItemGroupOID="SE">
         <ItemData ItemOID="SE.STUDYID" Value="CDISCPILOT01"/>
         <ItemData ItemOID="SE.DOMAIN" Value="SE"/>
         <ItemData ItemOID="SE.USUBJID" Value="01-708-1272"/>
         <ItemData ItemOID="SE.SESEQ" Value="4"/>
         <ItemData ItemOID="SE.ETCD" Value="LO"/>
         <ItemData ItemOID="SE.ELEMENT" Value="Low"/>
         <ItemData ItemOID="SE.SESTDTC" Value="2013-02-06"/>
         <ItemData ItemOID="SE.SEENDTC" Value="2013-04-04"/>
      </ItemGroupData>
      <ItemGroupData data:ItemGroupDataSeq="345" ItemGroupOID="SE">
         <ItemData ItemOID="SE.STUDYID" Value="CDISCPILOT01"/>
         <ItemData ItemOID="SE.DOMAIN" Value="SE"/>
         <ItemData ItemOID="SE.USUBJID" Value="01-708-1286"/>
         <ItemData ItemOID="SE.SESEQ" Value="1"/>
         <ItemData ItemOID="SE.ETCD" Value="SCRN"/>
         <ItemData ItemOID="SE.ELEMENT" Value="Screen"/>
         <ItemData ItemOID="SE.SESTDTC" Value="2013-08-25"/>
         <ItemData ItemOID="SE.SEENDTC" Value="2013-09-10"/>
      </ItemGroupData>
      <ItemGroupData data:ItemGroupDataSeq="346" ItemGroupOID="SE">
         <ItemData ItemOID="SE.STUDYID" Value="CDISCPILOT01"/>
         <ItemData ItemOID="SE.DOMAIN" Value="SE"/>
         <ItemData ItemOID="SE.USUBJID" Value="01-708-1286"/>
         <ItemData ItemOID="SE.SESEQ" Value="4"/>
         <ItemData ItemOID="SE.ETCD" Value="PBO"/>
         <ItemData ItemOID="SE.ELEMENT" Value="Placebo"/>
         <ItemData ItemOID="SE.SESTDTC" Value="2013-09-10"/>
         <ItemData ItemOID="SE.SEENDTC" Value="2014-03-08"/>
      </ItemGroupData>
      <ItemGroupData data:ItemGroupDataSeq="347" ItemGroupOID="SE">
         <ItemData ItemOID="SE.STUDYID" Value="CDISCPILOT01"/>
         <ItemData ItemOID="SE.DOMAIN" Value="SE"/>
         <ItemData ItemOID="SE.USUBJID" Value="01-708-1296"/>
         <ItemData ItemOID="SE.SESEQ" Value="1"/>
         <ItemData ItemOID="SE.ETCD" Value="SCRN"/>
         <ItemData ItemOID="SE.ELEMENT" Value="Screen"/>
         <ItemData ItemOID="SE.SESTDTC" Value="2013-06-07"/>
         <ItemData ItemOID="SE.SEENDTC" Value="2013-06-14"/>
      </ItemGroupData>
      <ItemGroupData data:ItemGroupDataSeq="348" ItemGroupOID="SE">
         <ItemData ItemOID="SE.STUDYID" Value="CDISCPILOT01"/>
         <ItemData ItemOID="SE.DOMAIN" Value="SE"/>
         <ItemData ItemOID="SE.USUBJID" Value="01-708-1296"/>
         <ItemData ItemOID="SE.SESEQ" Value="4"/>
         <ItemData ItemOID="SE.ETCD" Value="PBO"/>
         <ItemData ItemOID="SE.ELEMENT" Value="Placebo"/>
         <ItemData ItemOID="SE.SESTDTC" Value="2013-06-14"/>
         <ItemData ItemOID="SE.SEENDTC" Value="2013-12-12"/>
      </ItemGroupData>
      <ItemGroupData data:ItemGroupDataSeq="349" ItemGroupOID="SE">
         <ItemData ItemOID="SE.STUDYID" Value="CDISCPILOT01"/>
         <ItemData ItemOID="SE.DOMAIN" Value="SE"/>
         <ItemData ItemOID="SE.USUBJID" Value="01-708-1297"/>
         <ItemData ItemOID="SE.SESEQ" Value="1"/>
         <ItemData ItemOID="SE.ETCD" Value="SCRN"/>
         <ItemData ItemOID="SE.ELEMENT" Value="Screen"/>
         <ItemData ItemOID="SE.SESTDTC" Value="2013-01-15"/>
         <ItemData ItemOID="SE.SEENDTC" Value="2013-01-25"/>
      </ItemGroupData>
      <ItemGroupData data:ItemGroupDataSeq="350" ItemGroupOID="SE">
         <ItemData ItemOID="SE.STUDYID" Value="CDISCPILOT01"/>
         <ItemData ItemOID="SE.DOMAIN" Value="SE"/>
         <ItemData ItemOID="SE.USUBJID" Value="01-708-1297"/>
         <ItemData ItemOID="SE.SESEQ" Value="4"/>
         <ItemData ItemOID="SE.ETCD" Value="LO"/>
         <ItemData ItemOID="SE.ELEMENT" Value="Low"/>
         <ItemData ItemOID="SE.SESTDTC" Value="2013-01-25"/>
         <ItemData ItemOID="SE.SEENDTC" Value="2013-05-08"/>
      </ItemGroupData>
      <ItemGroupData data:ItemGroupDataSeq="351" ItemGroupOID="SE">
         <ItemData ItemOID="SE.STUDYID" Value="CDISCPILOT01"/>
         <ItemData ItemOID="SE.DOMAIN" Value="SE"/>
         <ItemData ItemOID="SE.USUBJID" Value="01-708-1297"/>
         <ItemData ItemOID="SE.SESEQ" Value="6"/>
         <ItemData ItemOID="SE.ETCD" Value="FOLO"/>
         <ItemData ItemOID="SE.ELEMENT" Value="Follow_up"/>
         <ItemData ItemOID="SE.SESTDTC" Value="2013-05-08"/>
         <ItemData ItemOID="SE.SEENDTC" Value="2013-06-07"/>
      </ItemGroupData>
      <ItemGroupData data:ItemGroupDataSeq="352" ItemGroupOID="SE">
         <ItemData ItemOID="SE.STUDYID" Value="CDISCPILOT01"/>
         <ItemData ItemOID="SE.DOMAIN" Value="SE"/>
         <ItemData ItemOID="SE.USUBJID" Value="01-708-1316"/>
         <ItemData ItemOID="SE.SESEQ" Value="1"/>
         <ItemData ItemOID="SE.ETCD" Value="SCRN"/>
         <ItemData ItemOID="SE.ELEMENT" Value="Screen"/>
         <ItemData ItemOID="SE.SESTDTC" Value="2013-08-15"/>
         <ItemData ItemOID="SE.SEENDTC" Value="2013-08-23"/>
      </ItemGroupData>
      <ItemGroupData data:ItemGroupDataSeq="353" ItemGroupOID="SE">
         <ItemData ItemOID="SE.STUDYID" Value="CDISCPILOT01"/>
         <ItemData ItemOID="SE.DOMAIN" Value="SE"/>
         <ItemData ItemOID="SE.USUBJID" Value="01-708-1316"/>
         <ItemData ItemOID="SE.SESEQ" Value="4"/>
         <ItemData ItemOID="SE.ETCD" Value="PBO"/>
         <ItemData ItemOID="SE.ELEMENT" Value="Placebo"/>
         <ItemData ItemOID="SE.SESTDTC" Value="2013-08-23"/>
         <ItemData ItemOID="SE.SEENDTC" Value="2014-03-01"/>
      </ItemGroupData>
      <ItemGroupData data:ItemGroupDataSeq="354" ItemGroupOID="SE">
         <ItemData ItemOID="SE.STUDYID" Value="CDISCPILOT01"/>
         <ItemData ItemOID="SE.DOMAIN" Value="SE"/>
         <ItemData ItemOID="SE.USUBJID" Value="01-708-1336"/>
         <ItemData ItemOID="SE.SESEQ" Value="1"/>
         <ItemData ItemOID="SE.ETCD" Value="SCRN"/>
         <ItemData ItemOID="SE.ELEMENT" Value="Screen"/>
         <ItemData ItemOID="SE.SESTDTC" Value="2012-11-21"/>
         <ItemData ItemOID="SE.SEENDTC" Value="2012-12-07"/>
      </ItemGroupData>
      <ItemGroupData data:ItemGroupDataSeq="355" ItemGroupOID="SE">
         <ItemData ItemOID="SE.STUDYID" Value="CDISCPILOT01"/>
         <ItemData ItemOID="SE.DOMAIN" Value="SE"/>
         <ItemData ItemOID="SE.USUBJID" Value="01-708-1336"/>
         <ItemData ItemOID="SE.SESEQ" Value="3"/>
         <ItemData ItemOID="SE.ETCD" Value="HIS"/>
         <ItemData ItemOID="SE.ELEMENT" Value="High_Start"/>
         <ItemData ItemOID="SE.SESTDTC" Value="2012-12-07"/>
         <ItemData ItemOID="SE.SEENDTC" Value="2012-12-21"/>
      </ItemGroupData>
      <ItemGroupData data:ItemGroupDataSeq="356" ItemGroupOID="SE">
         <ItemData ItemOID="SE.STUDYID" Value="CDISCPILOT01"/>
         <ItemData ItemOID="SE.DOMAIN" Value="SE"/>
         <ItemData ItemOID="SE.USUBJID" Value="01-708-1336"/>
         <ItemData ItemOID="SE.SESEQ" Value="4"/>
         <ItemData ItemOID="SE.ETCD" Value="HIM"/>
         <ItemData ItemOID="SE.ELEMENT" Value="High_Middle"/>
         <ItemData ItemOID="SE.SESTDTC" Value="2012-12-21"/>
         <ItemData ItemOID="SE.SEENDTC" Value="2013-05-22"/>
      </ItemGroupData>
      <ItemGroupData data:ItemGroupDataSeq="357" ItemGroupOID="SE">
         <ItemData ItemOID="SE.STUDYID" Value="CDISCPILOT01"/>
         <ItemData ItemOID="SE.DOMAIN" Value="SE"/>
         <ItemData ItemOID="SE.USUBJID" Value="01-708-1336"/>
         <ItemData ItemOID="SE.SESEQ" Value="5"/>
         <ItemData ItemOID="SE.ETCD" Value="HIE"/>
         <ItemData ItemOID="SE.ELEMENT" Value="High_End"/>
         <ItemData ItemOID="SE.SESTDTC" Value="2013-05-22"/>
         <ItemData ItemOID="SE.SEENDTC" Value="2013-06-05"/>
      </ItemGroupData>
      <ItemGroupData data:ItemGroupDataSeq="358" ItemGroupOID="SE">
         <ItemData ItemOID="SE.STUDYID" Value="CDISCPILOT01"/>
         <ItemData ItemOID="SE.DOMAIN" Value="SE"/>
         <ItemData ItemOID="SE.USUBJID" Value="01-708-1336"/>
         <ItemData ItemOID="SE.SESEQ" Value="6"/>
         <ItemData ItemOID="SE.ETCD" Value="FOLO"/>
         <ItemData ItemOID="SE.ELEMENT" Value="Follow_up"/>
         <ItemData ItemOID="SE.SESTDTC" Value="2013-06-05"/>
         <ItemData ItemOID="SE.SEENDTC" Value="2013-07-05"/>
      </ItemGroupData>
      <ItemGroupData data:ItemGroupDataSeq="359" ItemGroupOID="SE">
         <ItemData ItemOID="SE.STUDYID" Value="CDISCPILOT01"/>
         <ItemData ItemOID="SE.DOMAIN" Value="SE"/>
         <ItemData ItemOID="SE.USUBJID" Value="01-708-1342"/>
         <ItemData ItemOID="SE.SESEQ" Value="1"/>
         <ItemData ItemOID="SE.ETCD" Value="SCRN"/>
         <ItemData ItemOID="SE.ELEMENT" Value="Screen"/>
         <ItemData ItemOID="SE.SESTDTC" Value="2012-12-21"/>
         <ItemData ItemOID="SE.SEENDTC" Value="2012-12-29"/>
      </ItemGroupData>
      <ItemGroupData data:ItemGroupDataSeq="360" ItemGroupOID="SE">
         <ItemData ItemOID="SE.STUDYID" Value="CDISCPILOT01"/>
         <ItemData ItemOID="SE.DOMAIN" Value="SE"/>
         <ItemData ItemOID="SE.USUBJID" Value="01-708-1342"/>
         <ItemData ItemOID="SE.SESEQ" Value="4"/>
         <ItemData ItemOID="SE.ETCD" Value="PBO"/>
         <ItemData ItemOID="SE.ELEMENT" Value="Placebo"/>
         <ItemData ItemOID="SE.SESTDTC" Value="2012-12-29"/>
         <ItemData ItemOID="SE.SEENDTC" Value="2013-06-28"/>
      </ItemGroupData>
      <ItemGroupData data:ItemGroupDataSeq="361" ItemGroupOID="SE">
         <ItemData ItemOID="SE.STUDYID" Value="CDISCPILOT01"/>
         <ItemData ItemOID="SE.DOMAIN" Value="SE"/>
         <ItemData ItemOID="SE.USUBJID" Value="01-708-1347"/>
         <ItemData ItemOID="SE.SESEQ" Value="1"/>
         <ItemData ItemOID="SE.ETCD" Value="SCRN"/>
         <ItemData ItemOID="SE.ELEMENT" Value="Screen"/>
         <ItemData ItemOID="SE.SESTDTC" Value="2013-04-11"/>
         <ItemData ItemOID="SE.SEENDTC" Value="2013-04-20"/>
      </ItemGroupData>
      <ItemGroupData data:ItemGroupDataSeq="362" ItemGroupOID="SE">
         <ItemData ItemOID="SE.STUDYID" Value="CDISCPILOT01"/>
         <ItemData ItemOID="SE.DOMAIN" Value="SE"/>
         <ItemData ItemOID="SE.USUBJID" Value="01-708-1347"/>
         <ItemData ItemOID="SE.SESEQ" Value="3"/>
         <ItemData ItemOID="SE.ETCD" Value="HIS"/>
         <ItemData ItemOID="SE.ELEMENT" Value="High_Start"/>
         <ItemData ItemOID="SE.SESTDTC" Value="2013-04-20"/>
         <ItemData ItemOID="SE.SEENDTC" Value="2013-05-04"/>
      </ItemGroupData>
      <ItemGroupData data:ItemGroupDataSeq="363" ItemGroupOID="SE">
         <ItemData ItemOID="SE.STUDYID" Value="CDISCPILOT01"/>
         <ItemData ItemOID="SE.DOMAIN" Value="SE"/>
         <ItemData ItemOID="SE.USUBJID" Value="01-708-1347"/>
         <ItemData ItemOID="SE.SESEQ" Value="4"/>
         <ItemData ItemOID="SE.ETCD" Value="HIM"/>
         <ItemData ItemOID="SE.ELEMENT" Value="High_Middle"/>
         <ItemData ItemOID="SE.SESTDTC" Value="2013-05-04"/>
         <ItemData ItemOID="SE.SEENDTC" Value="2013-06-18"/>
      </ItemGroupData>
      <ItemGroupData data:ItemGroupDataSeq="364" ItemGroupOID="SE">
         <ItemData ItemOID="SE.STUDYID" Value="CDISCPILOT01"/>
         <ItemData ItemOID="SE.DOMAIN" Value="SE"/>
