<?xml version="1.0" encoding="UTF-8"?>
<ODM xmlns:data="http://www.cdisc.org/ns/Dataset-XML/v1.0"
     xmlns="http://www.cdisc.org/ns/odm/v1.3"
     data:DatasetXMLVersion="1.0.0"
     ODMVersion="1.3.2"
     FileType="Snapshot"
     FileOID="SDTM-XML"
     CreationDateTime="2012-12-08T23:06:03.046+01:00">
   <ClinicalData StudyOID="LZZT" MetaDataVersionOID="CDISC.SDTM.3.1.0">
      <ItemGroupData data:ItemGroupDataSeq="1" ItemGroupOID="SV">
         <ItemData ItemOID="SV.STUDYID" Value="CDISCPILOT01"/>
         <ItemData ItemOID="SV.DOMAIN" Value="SV"/>
         <ItemData ItemOID="SV.USUBJID" Value="01-701-1015"/>
         <ItemData ItemOID="SV.VISITNUM" Value="1"/>
         <ItemData ItemOID="SV.VISIT" Value="SCREENING 1"/>
         <ItemData ItemOID="SV.VISITDY" Value="-7"/>
         <ItemData ItemOID="SV.SVSTDTC" Value="2013-12-26"/>
         <ItemData ItemOID="SV.SVENDTC" Value="2013-12-26"/>
      </ItemGroupData>
      <ItemGroupData data:ItemGroupDataSeq="2" ItemGroupOID="SV">
         <ItemData ItemOID="SV.STUDYID" Value="CDISCPILOT01"/>
         <ItemData ItemOID="SV.DOMAIN" Value="SV"/>
         <ItemData ItemOID="SV.USUBJID" Value="01-701-1015"/>
         <ItemData ItemOID="SV.VISITNUM" Value="2"/>
         <ItemData ItemOID="SV.VISIT" Value="SCREENING 2"/>
         <ItemData ItemOID="SV.VISITDY" Value="-1"/>
         <ItemData ItemOID="SV.SVSTDTC" Value="2013-12-31"/>
         <ItemData ItemOID="SV.SVENDTC" Value="2013-12-31"/>
      </ItemGroupData>
      <ItemGroupData data:ItemGroupDataSeq="3" ItemGroupOID="SV">
         <ItemData ItemOID="SV.STUDYID" Value="CDISCPILOT01"/>
         <ItemData ItemOID="SV.DOMAIN" Value="SV"/>
         <ItemData ItemOID="SV.USUBJID" Value="01-701-1015"/>
         <ItemData ItemOID="SV.VISITNUM" Value="3"/>
         <ItemData ItemOID="SV.VISIT" Value="BASELINE"/>
         <ItemData ItemOID="SV.VISITDY" Value="1"/>
         <ItemData ItemOID="SV.SVSTDTC" Value="2014-01-02"/>
         <ItemData ItemOID="SV.SVENDTC" Value="2014-01-02"/>
      </ItemGroupData>
      <ItemGroupData data:ItemGroupDataSeq="4" ItemGroupOID="SV">
         <ItemData ItemOID="SV.STUDYID" Value="CDISCPILOT01"/>
         <ItemData ItemOID="SV.DOMAIN" Value="SV"/>
         <ItemData ItemOID="SV.USUBJID" Value="01-701-1015"/>
         <ItemData ItemOID="SV.VISITNUM" Value="3.5"/>
         <ItemData ItemOID="SV.VISIT" Value="AMBUL ECG PLACEMENT"/>
         <ItemData ItemOID="SV.VISITDY" Value="13"/>
         <ItemData ItemOID="SV.SVSTDTC" Value="2014-01-14"/>
         <ItemData ItemOID="SV.SVENDTC" Value="2014-01-14"/>
      </ItemGroupData>
      <ItemGroupData data:ItemGroupDataSeq="5" ItemGroupOID="SV">
         <ItemData ItemOID="SV.STUDYID" Value="CDISCPILOT01"/>
         <ItemData ItemOID="SV.DOMAIN" Value="SV"/>
         <ItemData ItemOID="SV.USUBJID" Value="01-701-1015"/>
         <ItemData ItemOID="SV.VISITNUM" Value="4"/>
         <ItemData ItemOID="SV.VISIT" Value="WEEK 2"/>
         <ItemData ItemOID="SV.VISITDY" Value="14"/>
         <ItemData ItemOID="SV.SVSTDTC" Value="2014-01-16"/>
         <ItemData ItemOID="SV.SVENDTC" Value="2014-01-16"/>
      </ItemGroupData>
      <ItemGroupData data:ItemGroupDataSeq="6" ItemGroupOID="SV">
         <ItemData ItemOID="SV.STUDYID" Value="CDISCPILOT01"/>
         <ItemData ItemOID="SV.DOMAIN" Value="SV"/>
         <ItemData ItemOID="SV.USUBJID" Value="01-701-1015"/>
         <ItemData ItemOID="SV.VISITNUM" Value="5"/>
         <ItemData ItemOID="SV.VISIT" Value="WEEK 4"/>
         <ItemData ItemOID="SV.VISITDY" Value="28"/>
         <ItemData ItemOID="SV.SVSTDTC" Value="2014-01-30"/>
         <ItemData ItemOID="SV.SVENDTC" Value="2014-01-30"/>
      </ItemGroupData>
      <ItemGroupData data:ItemGroupDataSeq="7" ItemGroupOID="SV">
         <ItemData ItemOID="SV.STUDYID" Value="CDISCPILOT01"/>
         <ItemData ItemOID="SV.DOMAIN" Value="SV"/>
         <ItemData ItemOID="SV.USUBJID" Value="01-701-1015"/>
         <ItemData ItemOID="SV.VISITNUM" Value="6"/>
         <ItemData ItemOID="SV.VISIT" Value="AMBUL ECG REMOVAL"/>
         <ItemData ItemOID="SV.VISITDY" Value="30"/>
         <ItemData ItemOID="SV.SVSTDTC" Value="2014-02-01"/>
         <ItemData ItemOID="SV.SVENDTC" Value="2014-02-01"/>
      </ItemGroupData>
      <ItemGroupData data:ItemGroupDataSeq="8" ItemGroupOID="SV">
         <ItemData ItemOID="SV.STUDYID" Value="CDISCPILOT01"/>
         <ItemData ItemOID="SV.DOMAIN" Value="SV"/>
         <ItemData ItemOID="SV.USUBJID" Value="01-701-1015"/>
         <ItemData ItemOID="SV.VISITNUM" Value="7"/>
         <ItemData ItemOID="SV.VISIT" Value="WEEK 6"/>
         <ItemData ItemOID="SV.VISITDY" Value="42"/>
         <ItemData ItemOID="SV.SVSTDTC" Value="2014-02-12"/>
         <ItemData ItemOID="SV.SVENDTC" Value="2014-02-12"/>
      </ItemGroupData>
      <ItemGroupData data:ItemGroupDataSeq="9" ItemGroupOID="SV">
         <ItemData ItemOID="SV.STUDYID" Value="CDISCPILOT01"/>
         <ItemData ItemOID="SV.DOMAIN" Value="SV"/>
         <ItemData ItemOID="SV.USUBJID" Value="01-701-1015"/>
         <ItemData ItemOID="SV.VISITNUM" Value="8"/>
         <ItemData ItemOID="SV.VISIT" Value="WEEK 8"/>
         <ItemData ItemOID="SV.VISITDY" Value="56"/>
         <ItemData ItemOID="SV.SVSTDTC" Value="2014-03-05"/>
         <ItemData ItemOID="SV.SVENDTC" Value="2014-03-05"/>
      </ItemGroupData>
      <ItemGroupData data:ItemGroupDataSeq="10" ItemGroupOID="SV">
         <ItemData ItemOID="SV.STUDYID" Value="CDISCPILOT01"/>
         <ItemData ItemOID="SV.DOMAIN" Value="SV"/>
         <ItemData ItemOID="SV.USUBJID" Value="01-701-1015"/>
         <ItemData ItemOID="SV.VISITNUM" Value="9"/>
         <ItemData ItemOID="SV.VISIT" Value="WEEK 12"/>
         <ItemData ItemOID="SV.VISITDY" Value="84"/>
         <ItemData ItemOID="SV.SVSTDTC" Value="2014-03-26"/>
         <ItemData ItemOID="SV.SVENDTC" Value="2014-03-26"/>
      </ItemGroupData>
      <ItemGroupData data:ItemGroupDataSeq="11" ItemGroupOID="SV">
         <ItemData ItemOID="SV.STUDYID" Value="CDISCPILOT01"/>
         <ItemData ItemOID="SV.DOMAIN" Value="SV"/>
         <ItemData ItemOID="SV.USUBJID" Value="01-701-1015"/>
         <ItemData ItemOID="SV.VISITNUM" Value="9.1"/>
         <ItemData ItemOID="SV.VISIT" Value="WEEK 14 (T)"/>
         <ItemData ItemOID="SV.VISITDY" Value="98"/>
         <ItemData ItemOID="SV.SVSTDTC" Value="2014-04-09"/>
         <ItemData ItemOID="SV.SVENDTC" Value="2014-04-09"/>
      </ItemGroupData>
      <ItemGroupData data:ItemGroupDataSeq="12" ItemGroupOID="SV">
         <ItemData ItemOID="SV.STUDYID" Value="CDISCPILOT01"/>
         <ItemData ItemOID="SV.DOMAIN" Value="SV"/>
         <ItemData ItemOID="SV.USUBJID" Value="01-701-1015"/>
         <ItemData ItemOID="SV.VISITNUM" Value="10"/>
         <ItemData ItemOID="SV.VISIT" Value="WEEK 16"/>
         <ItemData ItemOID="SV.VISITDY" Value="112"/>
         <ItemData ItemOID="SV.SVSTDTC" Value="2014-05-07"/>
         <ItemData ItemOID="SV.SVENDTC" Value="2014-05-07"/>
      </ItemGroupData>
      <ItemGroupData data:ItemGroupDataSeq="13" ItemGroupOID="SV">
         <ItemData ItemOID="SV.STUDYID" Value="CDISCPILOT01"/>
         <ItemData ItemOID="SV.DOMAIN" Value="SV"/>
         <ItemData ItemOID="SV.USUBJID" Value="01-701-1015"/>
         <ItemData ItemOID="SV.VISITNUM" Value="11"/>
         <ItemData ItemOID="SV.VISIT" Value="WEEK 20"/>
         <ItemData ItemOID="SV.VISITDY" Value="140"/>
         <ItemData ItemOID="SV.SVSTDTC" Value="2014-05-21"/>
         <ItemData ItemOID="SV.SVENDTC" Value="2014-05-21"/>
      </ItemGroupData>
      <ItemGroupData data:ItemGroupDataSeq="14" ItemGroupOID="SV">
         <ItemData ItemOID="SV.STUDYID" Value="CDISCPILOT01"/>
         <ItemData ItemOID="SV.DOMAIN" Value="SV"/>
         <ItemData ItemOID="SV.USUBJID" Value="01-701-1015"/>
         <ItemData ItemOID="SV.VISITNUM" Value="11.1"/>
         <ItemData ItemOID="SV.VISIT" Value="WEEK 22 (T)"/>
         <ItemData ItemOID="SV.VISITDY" Value="154"/>
         <ItemData ItemOID="SV.SVSTDTC" Value="2014-06-04"/>
         <ItemData ItemOID="SV.SVENDTC" Value="2014-06-04"/>
      </ItemGroupData>
      <ItemGroupData data:ItemGroupDataSeq="15" ItemGroupOID="SV">
         <ItemData ItemOID="SV.STUDYID" Value="CDISCPILOT01"/>
         <ItemData ItemOID="SV.DOMAIN" Value="SV"/>
         <ItemData ItemOID="SV.USUBJID" Value="01-701-1015"/>
         <ItemData ItemOID="SV.VISITNUM" Value="12"/>
         <ItemData ItemOID="SV.VISIT" Value="WEEK 24"/>
         <ItemData ItemOID="SV.VISITDY" Value="168"/>
         <ItemData ItemOID="SV.SVSTDTC" Value="2014-06-18"/>
         <ItemData ItemOID="SV.SVENDTC" Value="2014-06-18"/>
      </ItemGroupData>
      <ItemGroupData data:ItemGroupDataSeq="16" ItemGroupOID="SV">
         <ItemData ItemOID="SV.STUDYID" Value="CDISCPILOT01"/>
         <ItemData ItemOID="SV.DOMAIN" Value="SV"/>
         <ItemData ItemOID="SV.USUBJID" Value="01-701-1015"/>
         <ItemData ItemOID="SV.VISITNUM" Value="13"/>
         <ItemData ItemOID="SV.VISIT" Value="WEEK 26"/>
         <ItemData ItemOID="SV.VISITDY" Value="182"/>
         <ItemData ItemOID="SV.SVSTDTC" Value="2014-07-02"/>
         <ItemData ItemOID="SV.SVENDTC" Value="2014-07-02"/>
      </ItemGroupData>
      <ItemGroupData data:ItemGroupDataSeq="17" ItemGroupOID="SV">
         <ItemData ItemOID="SV.STUDYID" Value="CDISCPILOT01"/>
         <ItemData ItemOID="SV.DOMAIN" Value="SV"/>
         <ItemData ItemOID="SV.USUBJID" Value="01-701-1023"/>
         <ItemData ItemOID="SV.VISITNUM" Value="1"/>
         <ItemData ItemOID="SV.VISIT" Value="SCREENING 1"/>
         <ItemData ItemOID="SV.VISITDY" Value="-7"/>
         <ItemData ItemOID="SV.SVSTDTC" Value="2012-07-22"/>
         <ItemData ItemOID="SV.SVENDTC" Value="2012-07-22"/>
      </ItemGroupData>
      <ItemGroupData data:ItemGroupDataSeq="18" ItemGroupOID="SV">
         <ItemData ItemOID="SV.STUDYID" Value="CDISCPILOT01"/>
         <ItemData ItemOID="SV.DOMAIN" Value="SV"/>
         <ItemData ItemOID="SV.USUBJID" Value="01-701-1023"/>
         <ItemData ItemOID="SV.VISITNUM" Value="2"/>
         <ItemData ItemOID="SV.VISIT" Value="SCREENING 2"/>
         <ItemData ItemOID="SV.VISITDY" Value="-1"/>
         <ItemData ItemOID="SV.SVSTDTC" Value="2012-08-03"/>
         <ItemData ItemOID="SV.SVENDTC" Value="2012-08-03"/>
      </ItemGroupData>
      <ItemGroupData data:ItemGroupDataSeq="19" ItemGroupOID="SV">
         <ItemData ItemOID="SV.STUDYID" Value="CDISCPILOT01"/>
         <ItemData ItemOID="SV.DOMAIN" Value="SV"/>
         <ItemData ItemOID="SV.USUBJID" Value="01-701-1023"/>
         <ItemData ItemOID="SV.VISITNUM" Value="3"/>
         <ItemData ItemOID="SV.VISIT" Value="BASELINE"/>
         <ItemData ItemOID="SV.VISITDY" Value="1"/>
         <ItemData ItemOID="SV.SVSTDTC" Value="2012-08-05"/>
         <ItemData ItemOID="SV.SVENDTC" Value="2012-08-05"/>
      </ItemGroupData>
      <ItemGroupData data:ItemGroupDataSeq="20" ItemGroupOID="SV">
         <ItemData ItemOID="SV.STUDYID" Value="CDISCPILOT01"/>
         <ItemData ItemOID="SV.DOMAIN" Value="SV"/>
         <ItemData ItemOID="SV.USUBJID" Value="01-701-1023"/>
         <ItemData ItemOID="SV.VISITNUM" Value="3.5"/>
         <ItemData ItemOID="SV.VISIT" Value="AMBUL ECG PLACEMENT"/>
         <ItemData ItemOID="SV.VISITDY" Value="13"/>
         <ItemData ItemOID="SV.SVSTDTC" Value="2012-08-26"/>
         <ItemData ItemOID="SV.SVENDTC" Value="2012-08-26"/>
      </ItemGroupData>
      <ItemGroupData data:ItemGroupDataSeq="21" ItemGroupOID="SV">
         <ItemData ItemOID="SV.STUDYID" Value="CDISCPILOT01"/>
         <ItemData ItemOID="SV.DOMAIN" Value="SV"/>
         <ItemData ItemOID="SV.USUBJID" Value="01-701-1023"/>
         <ItemData ItemOID="SV.VISITNUM" Value="4"/>
         <ItemData ItemOID="SV.VISIT" Value="WEEK 2"/>
         <ItemData ItemOID="SV.VISITDY" Value="14"/>
         <ItemData ItemOID="SV.SVSTDTC" Value="2012-08-27"/>
         <ItemData ItemOID="SV.SVENDTC" Value="2012-08-27"/>
      </ItemGroupData>
      <ItemGroupData data:ItemGroupDataSeq="22" ItemGroupOID="SV">
         <ItemData ItemOID="SV.STUDYID" Value="CDISCPILOT01"/>
         <ItemData ItemOID="SV.DOMAIN" Value="SV"/>
         <ItemData ItemOID="SV.USUBJID" Value="01-701-1023"/>
         <ItemData ItemOID="SV.VISITNUM" Value="5"/>
         <ItemData ItemOID="SV.VISIT" Value="WEEK 4"/>
         <ItemData ItemOID="SV.VISITDY" Value="28"/>
         <ItemData ItemOID="SV.SVSTDTC" Value="2012-09-02"/>
         <ItemData ItemOID="SV.SVENDTC" Value="2012-09-02"/>
      </ItemGroupData>
      <ItemGroupData data:ItemGroupDataSeq="23" ItemGroupOID="SV">
         <ItemData ItemOID="SV.STUDYID" Value="CDISCPILOT01"/>
         <ItemData ItemOID="SV.DOMAIN" Value="SV"/>
         <ItemData ItemOID="SV.USUBJID" Value="01-701-1023"/>
         <ItemData ItemOID="SV.VISITNUM" Value="5.1"/>
         <ItemData ItemOID="SV.VISIT" Value="UNSCHEDULED 5.1"/>
         <ItemData ItemOID="SV.SVSTDTC" Value="2013-02-18"/>
         <ItemData ItemOID="SV.SVENDTC" Value="2013-02-18"/>
      </ItemGroupData>
      <ItemGroupData data:ItemGroupDataSeq="24" ItemGroupOID="SV">
         <ItemData ItemOID="SV.STUDYID" Value="CDISCPILOT01"/>
         <ItemData ItemOID="SV.DOMAIN" Value="SV"/>
         <ItemData ItemOID="SV.USUBJID" Value="01-701-1023"/>
         <ItemData ItemOID="SV.VISITNUM" Value="101"/>
         <ItemData ItemOID="SV.VISIT" Value="AE FOLLOW-UP"/>
         <ItemData ItemOID="SV.SVSTDTC" Value="2013-02-18"/>
         <ItemData ItemOID="SV.SVENDTC" Value="2013-02-18"/>
      </ItemGroupData>
      <ItemGroupData data:ItemGroupDataSeq="25" ItemGroupOID="SV">
         <ItemData ItemOID="SV.STUDYID" Value="CDISCPILOT01"/>
         <ItemData ItemOID="SV.DOMAIN" Value="SV"/>
         <ItemData ItemOID="SV.USUBJID" Value="01-701-1023"/>
         <ItemData ItemOID="SV.VISITNUM" Value="201"/>
         <ItemData ItemOID="SV.VISIT" Value="RETRIEVAL"/>
         <ItemData ItemOID="SV.VISITDY" Value="168"/>
         <ItemData ItemOID="SV.SVSTDTC" Value="2013-02-18"/>
         <ItemData ItemOID="SV.SVENDTC" Value="2013-02-18"/>
      </ItemGroupData>
      <ItemGroupData data:ItemGroupDataSeq="26" ItemGroupOID="SV">
         <ItemData ItemOID="SV.STUDYID" Value="CDISCPILOT01"/>
         <ItemData ItemOID="SV.DOMAIN" Value="SV"/>
         <ItemData ItemOID="SV.USUBJID" Value="01-701-1028"/>
         <ItemData ItemOID="SV.VISITNUM" Value="1"/>
         <ItemData ItemOID="SV.VISIT" Value="SCREENING 1"/>
         <ItemData ItemOID="SV.VISITDY" Value="-7"/>
         <ItemData ItemOID="SV.SVSTDTC" Value="2013-07-11"/>
         <ItemData ItemOID="SV.SVENDTC" Value="2013-07-11"/>
      </ItemGroupData>
      <ItemGroupData data:ItemGroupDataSeq="27" ItemGroupOID="SV">
         <ItemData ItemOID="SV.STUDYID" Value="CDISCPILOT01"/>
         <ItemData ItemOID="SV.DOMAIN" Value="SV"/>
         <ItemData ItemOID="SV.USUBJID" Value="01-701-1028"/>
         <ItemData ItemOID="SV.VISITNUM" Value="2"/>
         <ItemData ItemOID="SV.VISIT" Value="SCREENING 2"/>
         <ItemData ItemOID="SV.VISITDY" Value="-1"/>
         <ItemData ItemOID="SV.SVSTDTC" Value="2013-07-17"/>
         <ItemData ItemOID="SV.SVENDTC" Value="2013-07-17"/>
      </ItemGroupData>
      <ItemGroupData data:ItemGroupDataSeq="28" ItemGroupOID="SV">
         <ItemData ItemOID="SV.STUDYID" Value="CDISCPILOT01"/>
         <ItemData ItemOID="SV.DOMAIN" Value="SV"/>
         <ItemData ItemOID="SV.USUBJID" Value="01-701-1028"/>
         <ItemData ItemOID="SV.VISITNUM" Value="3"/>
         <ItemData ItemOID="SV.VISIT" Value="BASELINE"/>
         <ItemData ItemOID="SV.VISITDY" Value="1"/>
         <ItemData ItemOID="SV.SVSTDTC" Value="2013-07-19"/>
         <ItemData ItemOID="SV.SVENDTC" Value="2013-07-19"/>
      </ItemGroupData>
      <ItemGroupData data:ItemGroupDataSeq="29" ItemGroupOID="SV">
         <ItemData ItemOID="SV.STUDYID" Value="CDISCPILOT01"/>
         <ItemData ItemOID="SV.DOMAIN" Value="SV"/>
         <ItemData ItemOID="SV.USUBJID" Value="01-701-1028"/>
         <ItemData ItemOID="SV.VISITNUM" Value="3.5"/>
         <ItemData ItemOID="SV.VISIT" Value="AMBUL ECG PLACEMENT"/>
         <ItemData ItemOID="SV.VISITDY" Value="13"/>
         <ItemData ItemOID="SV.SVSTDTC" Value="2013-07-31"/>
         <ItemData ItemOID="SV.SVENDTC" Value="2013-07-31"/>
      </ItemGroupData>
      <ItemGroupData data:ItemGroupDataSeq="30" ItemGroupOID="SV">
         <ItemData ItemOID="SV.STUDYID" Value="CDISCPILOT01"/>
         <ItemData ItemOID="SV.DOMAIN" Value="SV"/>
         <ItemData ItemOID="SV.USUBJID" Value="01-701-1028"/>
         <ItemData ItemOID="SV.VISITNUM" Value="4"/>
         <ItemData ItemOID="SV.VISIT" Value="WEEK 2"/>
         <ItemData ItemOID="SV.VISITDY" Value="14"/>
         <ItemData ItemOID="SV.SVSTDTC" Value="2013-08-01"/>
         <ItemData ItemOID="SV.SVENDTC" Value="2013-08-01"/>
      </ItemGroupData>
      <ItemGroupData data:ItemGroupDataSeq="31" ItemGroupOID="SV">
         <ItemData ItemOID="SV.STUDYID" Value="CDISCPILOT01"/>
         <ItemData ItemOID="SV.DOMAIN" Value="SV"/>
         <ItemData ItemOID="SV.USUBJID" Value="01-701-1028"/>
         <ItemData ItemOID="SV.VISITNUM" Value="5"/>
         <ItemData ItemOID="SV.VISIT" Value="WEEK 4"/>
         <ItemData ItemOID="SV.VISITDY" Value="28"/>
         <ItemData ItemOID="SV.SVSTDTC" Value="2013-08-14"/>
         <ItemData ItemOID="SV.SVENDTC" Value="2013-08-14"/>
      </ItemGroupData>
      <ItemGroupData data:ItemGroupDataSeq="32" ItemGroupOID="SV">
         <ItemData ItemOID="SV.STUDYID" Value="CDISCPILOT01"/>
         <ItemData ItemOID="SV.DOMAIN" Value="SV"/>
         <ItemData ItemOID="SV.USUBJID" Value="01-701-1028"/>
         <ItemData ItemOID="SV.VISITNUM" Value="6"/>
         <ItemData ItemOID="SV.VISIT" Value="AMBUL ECG REMOVAL"/>
         <ItemData ItemOID="SV.VISITDY" Value="30"/>
         <ItemData ItemOID="SV.SVSTDTC" Value="2013-08-16"/>
         <ItemData ItemOID="SV.SVENDTC" Value="2013-08-16"/>
      </ItemGroupData>
      <ItemGroupData data:ItemGroupDataSeq="33" ItemGroupOID="SV">
         <ItemData ItemOID="SV.STUDYID" Value="CDISCPILOT01"/>
         <ItemData ItemOID="SV.DOMAIN" Value="SV"/>
         <ItemData ItemOID="SV.USUBJID" Value="01-701-1028"/>
         <ItemData ItemOID="SV.VISITNUM" Value="7"/>
         <ItemData ItemOID="SV.VISIT" Value="WEEK 6"/>
         <ItemData ItemOID="SV.VISITDY" Value="42"/>
         <ItemData ItemOID="SV.SVSTDTC" Value="2013-08-29"/>
         <ItemData ItemOID="SV.SVENDTC" Value="2013-08-29"/>
      </ItemGroupData>
      <ItemGroupData data:ItemGroupDataSeq="34" ItemGroupOID="SV">
         <ItemData ItemOID="SV.STUDYID" Value="CDISCPILOT01"/>
         <ItemData ItemOID="SV.DOMAIN" Value="SV"/>
         <ItemData ItemOID="SV.USUBJID" Value="01-701-1028"/>
         <ItemData ItemOID="SV.VISITNUM" Value="8"/>
         <ItemData ItemOID="SV.VISIT" Value="WEEK 8"/>
         <ItemData ItemOID="SV.VISITDY" Value="56"/>
         <ItemData ItemOID="SV.SVSTDTC" Value="2013-09-10"/>
         <ItemData ItemOID="SV.SVENDTC" Value="2013-09-10"/>
      </ItemGroupData>
      <ItemGroupData data:ItemGroupDataSeq="35" ItemGroupOID="SV">
         <ItemData ItemOID="SV.STUDYID" Value="CDISCPILOT01"/>
         <ItemData ItemOID="SV.DOMAIN" Value="SV"/>
         <ItemData ItemOID="SV.USUBJID" Value="01-701-1028"/>
         <ItemData ItemOID="SV.VISITNUM" Value="8.1"/>
         <ItemData ItemOID="SV.VISIT" Value="WEEK 10 (T)"/>
         <ItemData ItemOID="SV.VISITDY" Value="70"/>
         <ItemData ItemOID="SV.SVSTDTC" Value="2013-09-24"/>
         <ItemData ItemOID="SV.SVENDTC" Value="2013-09-24"/>
      </ItemGroupData>
      <ItemGroupData data:ItemGroupDataSeq="36" ItemGroupOID="SV">
         <ItemData ItemOID="SV.STUDYID" Value="CDISCPILOT01"/>
         <ItemData ItemOID="SV.DOMAIN" Value="SV"/>
         <ItemData ItemOID="SV.USUBJID" Value="01-701-1028"/>
         <ItemData ItemOID="SV.VISITNUM" Value="9"/>
         <ItemData ItemOID="SV.VISIT" Value="WEEK 12"/>
         <ItemData ItemOID="SV.VISITDY" Value="84"/>
         <ItemData ItemOID="SV.SVSTDTC" Value="2013-10-09"/>
         <ItemData ItemOID="SV.SVENDTC" Value="2013-10-09"/>
      </ItemGroupData>
      <ItemGroupData data:ItemGroupDataSeq="37" ItemGroupOID="SV">
         <ItemData ItemOID="SV.STUDYID" Value="CDISCPILOT01"/>
         <ItemData ItemOID="SV.DOMAIN" Value="SV"/>
         <ItemData ItemOID="SV.USUBJID" Value="01-701-1028"/>
         <ItemData ItemOID="SV.VISITNUM" Value="9.1"/>
         <ItemData ItemOID="SV.VISIT" Value="WEEK 14 (T)"/>
         <ItemData ItemOID="SV.VISITDY" Value="98"/>
         <ItemData ItemOID="SV.SVSTDTC" Value="2013-10-23"/>
         <ItemData ItemOID="SV.SVENDTC" Value="2013-10-23"/>
      </ItemGroupData>
      <ItemGroupData data:ItemGroupDataSeq="38" ItemGroupOID="SV">
         <ItemData ItemOID="SV.STUDYID" Value="CDISCPILOT01"/>
         <ItemData ItemOID="SV.DOMAIN" Value="SV"/>
         <ItemData ItemOID="SV.USUBJID" Value="01-701-1028"/>
         <ItemData ItemOID="SV.VISITNUM" Value="10"/>
         <ItemData ItemOID="SV.VISIT" Value="WEEK 16"/>
         <ItemData ItemOID="SV.VISITDY" Value="112"/>
         <ItemData ItemOID="SV.SVSTDTC" Value="2013-11-06"/>
         <ItemData ItemOID="SV.SVENDTC" Value="2013-11-06"/>
      </ItemGroupData>
      <ItemGroupData data:ItemGroupDataSeq="39" ItemGroupOID="SV">
         <ItemData ItemOID="SV.STUDYID" Value="CDISCPILOT01"/>
         <ItemData ItemOID="SV.DOMAIN" Value="SV"/>
         <ItemData ItemOID="SV.USUBJID" Value="01-701-1028"/>
         <ItemData ItemOID="SV.VISITNUM" Value="10.1"/>
         <ItemData ItemOID="SV.VISIT" Value="WEEK 18 (T)"/>
         <ItemData ItemOID="SV.VISITDY" Value="126"/>
         <ItemData ItemOID="SV.SVSTDTC" Value="2013-11-20"/>
         <ItemData ItemOID="SV.SVENDTC" Value="2013-11-20"/>
      </ItemGroupData>
      <ItemGroupData data:ItemGroupDataSeq="40" ItemGroupOID="SV">
         <ItemData ItemOID="SV.STUDYID" Value="CDISCPILOT01"/>
         <ItemData ItemOID="SV.DOMAIN" Value="SV"/>
         <ItemData ItemOID="SV.USUBJID" Value="01-701-1028"/>
         <ItemData ItemOID="SV.VISITNUM" Value="11"/>
         <ItemData ItemOID="SV.VISIT" Value="WEEK 20"/>
         <ItemData ItemOID="SV.VISITDY" Value="140"/>
         <ItemData ItemOID="SV.SVSTDTC" Value="2013-12-04"/>
         <ItemData ItemOID="SV.SVENDTC" Value="2013-12-04"/>
      </ItemGroupData>
      <ItemGroupData data:ItemGroupDataSeq="41" ItemGroupOID="SV">
         <ItemData ItemOID="SV.STUDYID" Value="CDISCPILOT01"/>
         <ItemData ItemOID="SV.DOMAIN" Value="SV"/>
         <ItemData ItemOID="SV.USUBJID" Value="01-701-1028"/>
         <ItemData ItemOID="SV.VISITNUM" Value="11.1"/>
         <ItemData ItemOID="SV.VISIT" Value="WEEK 22 (T)"/>
         <ItemData ItemOID="SV.VISITDY" Value="154"/>
         <ItemData ItemOID="SV.SVSTDTC" Value="2013-12-18"/>
         <ItemData ItemOID="SV.SVENDTC" Value="2013-12-18"/>
      </ItemGroupData>
      <ItemGroupData data:ItemGroupDataSeq="42" ItemGroupOID="SV">
         <ItemData ItemOID="SV.STUDYID" Value="CDISCPILOT01"/>
         <ItemData ItemOID="SV.DOMAIN" Value="SV"/>
         <ItemData ItemOID="SV.USUBJID" Value="01-701-1028"/>
         <ItemData ItemOID="SV.VISITNUM" Value="12"/>
         <ItemData ItemOID="SV.VISIT" Value="WEEK 24"/>
         <ItemData ItemOID="SV.VISITDY" Value="168"/>
         <ItemData ItemOID="SV.SVSTDTC" Value="2014-01-06"/>
         <ItemData ItemOID="SV.SVENDTC" Value="2014-01-06"/>
      </ItemGroupData>
      <ItemGroupData data:ItemGroupDataSeq="43" ItemGroupOID="SV">
         <ItemData ItemOID="SV.STUDYID" Value="CDISCPILOT01"/>
         <ItemData ItemOID="SV.DOMAIN" Value="SV"/>
         <ItemData ItemOID="SV.USUBJID" Value="01-701-1028"/>
         <ItemData ItemOID="SV.VISITNUM" Value="13"/>
         <ItemData ItemOID="SV.VISIT" Value="WEEK 26"/>
         <ItemData ItemOID="SV.VISITDY" Value="182"/>
         <ItemData ItemOID="SV.SVSTDTC" Value="2014-01-14"/>
         <ItemData ItemOID="SV.SVENDTC" Value="2014-01-14"/>
      </ItemGroupData>
      <ItemGroupData data:ItemGroupDataSeq="44" ItemGroupOID="SV">
         <ItemData ItemOID="SV.STUDYID" Value="CDISCPILOT01"/>
         <ItemData ItemOID="SV.DOMAIN" Value="SV"/>
         <ItemData ItemOID="SV.USUBJID" Value="01-701-1033"/>
         <ItemData ItemOID="SV.VISITNUM" Value="1"/>
         <ItemData ItemOID="SV.VISIT" Value="SCREENING 1"/>
         <ItemData ItemOID="SV.VISITDY" Value="-7"/>
         <ItemData ItemOID="SV.SVSTDTC" Value="2014-03-10"/>
         <ItemData ItemOID="SV.SVENDTC" Value="2014-03-10"/>
      </ItemGroupData>
      <ItemGroupData data:ItemGroupDataSeq="45" ItemGroupOID="SV">
         <ItemData ItemOID="SV.STUDYID" Value="CDISCPILOT01"/>
         <ItemData ItemOID="SV.DOMAIN" Value="SV"/>
         <ItemData ItemOID="SV.USUBJID" Value="01-701-1033"/>
         <ItemData ItemOID="SV.VISITNUM" Value="2"/>
         <ItemData ItemOID="SV.VISIT" Value="SCREENING 2"/>
         <ItemData ItemOID="SV.VISITDY" Value="-1"/>
         <ItemData ItemOID="SV.SVSTDTC" Value="2014-03-16"/>
         <ItemData ItemOID="SV.SVENDTC" Value="2014-03-16"/>
      </ItemGroupData>
      <ItemGroupData data:ItemGroupDataSeq="46" ItemGroupOID="SV">
         <ItemData ItemOID="SV.STUDYID" Value="CDISCPILOT01"/>
         <ItemData ItemOID="SV.DOMAIN" Value="SV"/>
         <ItemData ItemOID="SV.USUBJID" Value="01-701-1033"/>
         <ItemData ItemOID="SV.VISITNUM" Value="3"/>
         <ItemData ItemOID="SV.VISIT" Value="BASELINE"/>
         <ItemData ItemOID="SV.VISITDY" Value="1"/>
         <ItemData ItemOID="SV.SVSTDTC" Value="2014-03-18"/>
         <ItemData ItemOID="SV.SVENDTC" Value="2014-03-18"/>
      </ItemGroupData>
      <ItemGroupData data:ItemGroupDataSeq="47" ItemGroupOID="SV">
         <ItemData ItemOID="SV.STUDYID" Value="CDISCPILOT01"/>
         <ItemData ItemOID="SV.DOMAIN" Value="SV"/>
         <ItemData ItemOID="SV.USUBJID" Value="01-701-1033"/>
         <ItemData ItemOID="SV.VISITNUM" Value="3.5"/>
         <ItemData ItemOID="SV.VISIT" Value="AMBUL ECG PLACEMENT"/>
         <ItemData ItemOID="SV.VISITDY" Value="13"/>
         <ItemData ItemOID="SV.SVSTDTC" Value="2014-03-31"/>
         <ItemData ItemOID="SV.SVENDTC" Value="2014-03-31"/>
      </ItemGroupData>
      <ItemGroupData data:ItemGroupDataSeq="48" ItemGroupOID="SV">
         <ItemData ItemOID="SV.STUDYID" Value="CDISCPILOT01"/>
         <ItemData ItemOID="SV.DOMAIN" Value="SV"/>
         <ItemData ItemOID="SV.USUBJID" Value="01-701-1033"/>
         <ItemData ItemOID="SV.VISITNUM" Value="4"/>
         <ItemData ItemOID="SV.VISIT" Value="WEEK 2"/>
         <ItemData ItemOID="SV.VISITDY" Value="14"/>
         <ItemData ItemOID="SV.SVSTDTC" Value="2014-04-01"/>
         <ItemData ItemOID="SV.SVENDTC" Value="2014-04-01"/>
      </ItemGroupData>
      <ItemGroupData data:ItemGroupDataSeq="49" ItemGroupOID="SV">
         <ItemData ItemOID="SV.STUDYID" Value="CDISCPILOT01"/>
         <ItemData ItemOID="SV.DOMAIN" Value="SV"/>
         <ItemData ItemOID="SV.USUBJID" Value="01-701-1033"/>
         <ItemData ItemOID="SV.VISITNUM" Value="5"/>
         <ItemData ItemOID="SV.VISIT" Value="WEEK 4"/>
         <ItemData ItemOID="SV.VISITDY" Value="28"/>
         <ItemData ItemOID="SV.SVSTDTC" Value="2014-04-14"/>
         <ItemData ItemOID="SV.SVENDTC" Value="2014-04-14"/>
      </ItemGroupData>
      <ItemGroupData data:ItemGroupDataSeq="50" ItemGroupOID="SV">
         <ItemData ItemOID="SV.STUDYID" Value="CDISCPILOT01"/>
         <ItemData ItemOID="SV.DOMAIN" Value="SV"/>
         <ItemData ItemOID="SV.USUBJID" Value="01-701-1033"/>
         <ItemData ItemOID="SV.VISITNUM" Value="201"/>
         <ItemData ItemOID="SV.VISIT" Value="RETRIEVAL"/>
         <ItemData ItemOID="SV.VISITDY" Value="168"/>
         <ItemData ItemOID="SV.SVSTDTC" Value="2014-09-15"/>
         <ItemData ItemOID="SV.SVENDTC" Value="2014-09-15"/>
      </ItemGroupData>
      <ItemGroupData data:ItemGroupDataSeq="51" ItemGroupOID="SV">
         <ItemData ItemOID="SV.STUDYID" Value="CDISCPILOT01"/>
         <ItemData ItemOID="SV.DOMAIN" Value="SV"/>
         <ItemData ItemOID="SV.USUBJID" Value="01-701-1034"/>
         <ItemData ItemOID="SV.VISITNUM" Value="1"/>
         <ItemData ItemOID="SV.VISIT" Value="SCREENING 1"/>
         <ItemData ItemOID="SV.VISITDY" Value="-7"/>
         <ItemData ItemOID="SV.SVSTDTC" Value="2014-06-24"/>
         <ItemData ItemOID="SV.SVENDTC" Value="2014-06-24"/>
      </ItemGroupData>
      <ItemGroupData data:ItemGroupDataSeq="52" ItemGroupOID="SV">
         <ItemData ItemOID="SV.STUDYID" Value="CDISCPILOT01"/>
         <ItemData ItemOID="SV.DOMAIN" Value="SV"/>
         <ItemData ItemOID="SV.USUBJID" Value="01-701-1034"/>
         <ItemData ItemOID="SV.VISITNUM" Value="2"/>
         <ItemData ItemOID="SV.VISIT" Value="SCREENING 2"/>
         <ItemData ItemOID="SV.VISITDY" Value="-1"/>
         <ItemData ItemOID="SV.SVSTDTC" Value="2014-06-29"/>
         <ItemData ItemOID="SV.SVENDTC" Value="2014-06-29"/>
      </ItemGroupData>
      <ItemGroupData data:ItemGroupDataSeq="53" ItemGroupOID="SV">
         <ItemData ItemOID="SV.STUDYID" Value="CDISCPILOT01"/>
         <ItemData ItemOID="SV.DOMAIN" Value="SV"/>
         <ItemData ItemOID="SV.USUBJID" Value="01-701-1034"/>
         <ItemData ItemOID="SV.VISITNUM" Value="3"/>
         <ItemData ItemOID="SV.VISIT" Value="BASELINE"/>
         <ItemData ItemOID="SV.VISITDY" Value="1"/>
         <ItemData ItemOID="SV.SVSTDTC" Value="2014-07-01"/>
         <ItemData ItemOID="SV.SVENDTC" Value="2014-07-01"/>
      </ItemGroupData>
      <ItemGroupData data:ItemGroupDataSeq="54" ItemGroupOID="SV">
         <ItemData ItemOID="SV.STUDYID" Value="CDISCPILOT01"/>
         <ItemData ItemOID="SV.DOMAIN" Value="SV"/>
         <ItemData ItemOID="SV.USUBJID" Value="01-701-1034"/>
         <ItemData ItemOID="SV.VISITNUM" Value="4"/>
         <ItemData ItemOID="SV.VISIT" Value="WEEK 2"/>
         <ItemData ItemOID="SV.VISITDY" Value="14"/>
         <ItemData ItemOID="SV.SVSTDTC" Value="2014-07-15"/>
         <ItemData ItemOID="SV.SVENDTC" Value="2014-07-15"/>
      </ItemGroupData>
      <ItemGroupData data:ItemGroupDataSeq="55" ItemGroupOID="SV">
         <ItemData ItemOID="SV.STUDYID" Value="CDISCPILOT01"/>
         <ItemData ItemOID="SV.DOMAIN" Value="SV"/>
         <ItemData ItemOID="SV.USUBJID" Value="01-701-1034"/>
         <ItemData ItemOID="SV.VISITNUM" Value="5"/>
         <ItemData ItemOID="SV.VISIT" Value="WEEK 4"/>
         <ItemData ItemOID="SV.VISITDY" Value="28"/>
         <ItemData ItemOID="SV.SVSTDTC" Value="2014-07-29"/>
         <ItemData ItemOID="SV.SVENDTC" Value="2014-07-29"/>
      </ItemGroupData>
      <ItemGroupData data:ItemGroupDataSeq="56" ItemGroupOID="SV">
         <ItemData ItemOID="SV.STUDYID" Value="CDISCPILOT01"/>
         <ItemData ItemOID="SV.DOMAIN" Value="SV"/>
         <ItemData ItemOID="SV.USUBJID" Value="01-701-1034"/>
         <ItemData ItemOID="SV.VISITNUM" Value="6"/>
         <ItemData ItemOID="SV.VISIT" Value="AMBUL ECG REMOVAL"/>
         <ItemData ItemOID="SV.VISITDY" Value="30"/>
         <ItemData ItemOID="SV.SVSTDTC" Value="2014-07-31"/>
         <ItemData ItemOID="SV.SVENDTC" Value="2014-07-31"/>
      </ItemGroupData>
      <ItemGroupData data:ItemGroupDataSeq="57" ItemGroupOID="SV">
         <ItemData ItemOID="SV.STUDYID" Value="CDISCPILOT01"/>
         <ItemData ItemOID="SV.DOMAIN" Value="SV"/>
         <ItemData ItemOID="SV.USUBJID" Value="01-701-1034"/>
         <ItemData ItemOID="SV.VISITNUM" Value="7"/>
         <ItemData ItemOID="SV.VISIT" Value="WEEK 6"/>
         <ItemData ItemOID="SV.VISITDY" Value="42"/>
         <ItemData ItemOID="SV.SVSTDTC" Value="2014-08-11"/>
         <ItemData ItemOID="SV.SVENDTC" Value="2014-08-11"/>
      </ItemGroupData>
      <ItemGroupData data:ItemGroupDataSeq="58" ItemGroupOID="SV">
         <ItemData ItemOID="SV.STUDYID" Value="CDISCPILOT01"/>
         <ItemData ItemOID="SV.DOMAIN" Value="SV"/>
         <ItemData ItemOID="SV.USUBJID" Value="01-701-1034"/>
         <ItemData ItemOID="SV.VISITNUM" Value="8"/>
         <ItemData ItemOID="SV.VISIT" Value="WEEK 8"/>
         <ItemData ItemOID="SV.VISITDY" Value="56"/>
         <ItemData ItemOID="SV.SVSTDTC" Value="2014-08-26"/>
         <ItemData ItemOID="SV.SVENDTC" Value="2014-08-26"/>
      </ItemGroupData>
      <ItemGroupData data:ItemGroupDataSeq="59" ItemGroupOID="SV">
         <ItemData ItemOID="SV.STUDYID" Value="CDISCPILOT01"/>
         <ItemData ItemOID="SV.DOMAIN" Value="SV"/>
         <ItemData ItemOID="SV.USUBJID" Value="01-701-1034"/>
         <ItemData ItemOID="SV.VISITNUM" Value="8.1"/>
         <ItemData ItemOID="SV.VISIT" Value="WEEK 10 (T)"/>
         <ItemData ItemOID="SV.VISITDY" Value="70"/>
         <ItemData ItemOID="SV.SVSTDTC" Value="2014-09-09"/>
         <ItemData ItemOID="SV.SVENDTC" Value="2014-09-09"/>
      </ItemGroupData>
      <ItemGroupData data:ItemGroupDataSeq="60" ItemGroupOID="SV">
         <ItemData ItemOID="SV.STUDYID" Value="CDISCPILOT01"/>
         <ItemData ItemOID="SV.DOMAIN" Value="SV"/>
         <ItemData ItemOID="SV.USUBJID" Value="01-701-1034"/>
         <ItemData ItemOID="SV.VISITNUM" Value="9"/>
         <ItemData ItemOID="SV.VISIT" Value="WEEK 12"/>
         <ItemData ItemOID="SV.VISITDY" Value="84"/>
         <ItemData ItemOID="SV.SVSTDTC" Value="2014-09-25"/>
         <ItemData ItemOID="SV.SVENDTC" Value="2014-09-25"/>
      </ItemGroupData>
      <ItemGroupData data:ItemGroupDataSeq="61" ItemGroupOID="SV">
         <ItemData ItemOID="SV.STUDYID" Value="CDISCPILOT01"/>
         <ItemData ItemOID="SV.DOMAIN" Value="SV"/>
         <ItemData ItemOID="SV.USUBJID" Value="01-701-1034"/>
         <ItemData ItemOID="SV.VISITNUM" Value="9.1"/>
         <ItemData ItemOID="SV.VISIT" Value="WEEK 14 (T)"/>
         <ItemData ItemOID="SV.VISITDY" Value="98"/>
         <ItemData ItemOID="SV.SVSTDTC" Value="2014-10-07"/>
         <ItemData ItemOID="SV.SVENDTC" Value="2014-10-07"/>
      </ItemGroupData>
      <ItemGroupData data:ItemGroupDataSeq="62" ItemGroupOID="SV">
         <ItemData ItemOID="SV.STUDYID" Value="CDISCPILOT01"/>
         <ItemData ItemOID="SV.DOMAIN" Value="SV"/>
         <ItemData ItemOID="SV.USUBJID" Value="01-701-1034"/>
         <ItemData ItemOID="SV.VISITNUM" Value="10"/>
         <ItemData ItemOID="SV.VISIT" Value="WEEK 16"/>
         <ItemData ItemOID="SV.VISITDY" Value="112"/>
         <ItemData ItemOID="SV.SVSTDTC" Value="2014-10-21"/>
         <ItemData ItemOID="SV.SVENDTC" Value="2014-10-21"/>
      </ItemGroupData>
      <ItemGroupData data:ItemGroupDataSeq="63" ItemGroupOID="SV">
         <ItemData ItemOID="SV.STUDYID" Value="CDISCPILOT01"/>
         <ItemData ItemOID="SV.DOMAIN" Value="SV"/>
         <ItemData ItemOID="SV.USUBJID" Value="01-701-1034"/>
         <ItemData ItemOID="SV.VISITNUM" Value="10.1"/>
         <ItemData ItemOID="SV.VISIT" Value="WEEK 18 (T)"/>
         <ItemData ItemOID="SV.VISITDY" Value="126"/>
         <ItemData ItemOID="SV.SVSTDTC" Value="2014-11-04"/>
         <ItemData ItemOID="SV.SVENDTC" Value="2014-11-04"/>
      </ItemGroupData>
      <ItemGroupData data:ItemGroupDataSeq="64" ItemGroupOID="SV">
         <ItemData ItemOID="SV.STUDYID" Value="CDISCPILOT01"/>
         <ItemData ItemOID="SV.DOMAIN" Value="SV"/>
         <ItemData ItemOID="SV.USUBJID" Value="01-701-1034"/>
         <ItemData ItemOID="SV.VISITNUM" Value="11"/>
         <ItemData ItemOID="SV.VISIT" Value="WEEK 20"/>
         <ItemData ItemOID="SV.VISITDY" Value="140"/>
         <ItemData ItemOID="SV.SVSTDTC" Value="2014-11-18"/>
         <ItemData ItemOID="SV.SVENDTC" Value="2014-11-18"/>
      </ItemGroupData>
      <ItemGroupData data:ItemGroupDataSeq="65" ItemGroupOID="SV">
         <ItemData ItemOID="SV.STUDYID" Value="CDISCPILOT01"/>
         <ItemData ItemOID="SV.DOMAIN" Value="SV"/>
         <ItemData ItemOID="SV.USUBJID" Value="01-701-1034"/>
         <ItemData ItemOID="SV.VISITNUM" Value="11.1"/>
         <ItemData ItemOID="SV.VISIT" Value="WEEK 22 (T)"/>
         <ItemData ItemOID="SV.VISITDY" Value="154"/>
         <ItemData ItemOID="SV.SVSTDTC" Value="2014-12-02"/>
         <ItemData ItemOID="SV.SVENDTC" Value="2014-12-02"/>
      </ItemGroupData>
      <ItemGroupData data:ItemGroupDataSeq="66" ItemGroupOID="SV">
         <ItemData ItemOID="SV.STUDYID" Value="CDISCPILOT01"/>
         <ItemData ItemOID="SV.DOMAIN" Value="SV"/>
         <ItemData ItemOID="SV.USUBJID" Value="01-701-1034"/>
         <ItemData ItemOID="SV.VISITNUM" Value="12"/>
         <ItemData ItemOID="SV.VISIT" Value="WEEK 24"/>
         <ItemData ItemOID="SV.VISITDY" Value="168"/>
         <ItemData ItemOID="SV.SVSTDTC" Value="2014-12-17"/>
         <ItemData ItemOID="SV.SVENDTC" Value="2014-12-17"/>
      </ItemGroupData>
      <ItemGroupData data:ItemGroupDataSeq="67" ItemGroupOID="SV">
         <ItemData ItemOID="SV.STUDYID" Value="CDISCPILOT01"/>
         <ItemData ItemOID="SV.DOMAIN" Value="SV"/>
         <ItemData ItemOID="SV.USUBJID" Value="01-701-1034"/>
         <ItemData ItemOID="SV.VISITNUM" Value="13"/>
         <ItemData ItemOID="SV.VISIT" Value="WEEK 26"/>
         <ItemData ItemOID="SV.VISITDY" Value="182"/>
         <ItemData ItemOID="SV.SVSTDTC" Value="2014-12-30"/>
         <ItemData ItemOID="SV.SVENDTC" Value="2014-12-30"/>
      </ItemGroupData>
      <ItemGroupData data:ItemGroupDataSeq="68" ItemGroupOID="SV">
         <ItemData ItemOID="SV.STUDYID" Value="CDISCPILOT01"/>
         <ItemData ItemOID="SV.DOMAIN" Value="SV"/>
         <ItemData ItemOID="SV.USUBJID" Value="01-701-1047"/>
         <ItemData ItemOID="SV.VISITNUM" Value="1"/>
         <ItemData ItemOID="SV.VISIT" Value="SCREENING 1"/>
         <ItemData ItemOID="SV.VISITDY" Value="-7"/>
         <ItemData ItemOID="SV.SVSTDTC" Value="2013-01-22"/>
         <ItemData ItemOID="SV.SVENDTC" Value="2013-01-22"/>
      </ItemGroupData>
      <ItemGroupData data:ItemGroupDataSeq="69" ItemGroupOID="SV">
         <ItemData ItemOID="SV.STUDYID" Value="CDISCPILOT01"/>
         <ItemData ItemOID="SV.DOMAIN" Value="SV"/>
         <ItemData ItemOID="SV.USUBJID" Value="01-701-1047"/>
         <ItemData ItemOID="SV.VISITNUM" Value="2"/>
         <ItemData ItemOID="SV.VISIT" Value="SCREENING 2"/>
         <ItemData ItemOID="SV.VISITDY" Value="-1"/>
         <ItemData ItemOID="SV.SVSTDTC" Value="2013-02-10"/>
         <ItemData ItemOID="SV.SVENDTC" Value="2013-02-10"/>
      </ItemGroupData>
      <ItemGroupData data:ItemGroupDataSeq="70" ItemGroupOID="SV">
         <ItemData ItemOID="SV.STUDYID" Value="CDISCPILOT01"/>
         <ItemData ItemOID="SV.DOMAIN" Value="SV"/>
         <ItemData ItemOID="SV.USUBJID" Value="01-701-1047"/>
         <ItemData ItemOID="SV.VISITNUM" Value="3"/>
         <ItemData ItemOID="SV.VISIT" Value="BASELINE"/>
         <ItemData ItemOID="SV.VISITDY" Value="1"/>
         <ItemData ItemOID="SV.SVSTDTC" Value="2013-02-12"/>
         <ItemData ItemOID="SV.SVENDTC" Value="2013-02-12"/>
      </ItemGroupData>
      <ItemGroupData data:ItemGroupDataSeq="71" ItemGroupOID="SV">
         <ItemData ItemOID="SV.STUDYID" Value="CDISCPILOT01"/>
         <ItemData ItemOID="SV.DOMAIN" Value="SV"/>
         <ItemData ItemOID="SV.USUBJID" Value="01-701-1047"/>
         <ItemData ItemOID="SV.VISITNUM" Value="3.5"/>
         <ItemData ItemOID="SV.VISIT" Value="AMBUL ECG PLACEMENT"/>
         <ItemData ItemOID="SV.VISITDY" Value="13"/>
         <ItemData ItemOID="SV.SVSTDTC" Value="2013-02-24"/>
         <ItemData ItemOID="SV.SVENDTC" Value="2013-02-24"/>
      </ItemGroupData>
      <ItemGroupData data:ItemGroupDataSeq="72" ItemGroupOID="SV">
         <ItemData ItemOID="SV.STUDYID" Value="CDISCPILOT01"/>
         <ItemData ItemOID="SV.DOMAIN" Value="SV"/>
         <ItemData ItemOID="SV.USUBJID" Value="01-701-1047"/>
         <ItemData ItemOID="SV.VISITNUM" Value="4"/>
         <ItemData ItemOID="SV.VISIT" Value="WEEK 2"/>
         <ItemData ItemOID="SV.VISITDY" Value="14"/>
         <ItemData ItemOID="SV.SVSTDTC" Value="2013-02-25"/>
         <ItemData ItemOID="SV.SVENDTC" Value="2013-02-25"/>
      </ItemGroupData>
      <ItemGroupData data:ItemGroupDataSeq="73" ItemGroupOID="SV">
         <ItemData ItemOID="SV.STUDYID" Value="CDISCPILOT01"/>
         <ItemData ItemOID="SV.DOMAIN" Value="SV"/>
         <ItemData ItemOID="SV.USUBJID" Value="01-701-1047"/>
         <ItemData ItemOID="SV.VISITNUM" Value="5"/>
         <ItemData ItemOID="SV.VISIT" Value="WEEK 4"/>
         <ItemData ItemOID="SV.VISITDY" Value="28"/>
         <ItemData ItemOID="SV.SVSTDTC" Value="2013-03-10"/>
         <ItemData ItemOID="SV.SVENDTC" Value="2013-03-10"/>
      </ItemGroupData>
      <ItemGroupData data:ItemGroupDataSeq="74" ItemGroupOID="SV">
         <ItemData ItemOID="SV.STUDYID" Value="CDISCPILOT01"/>
         <ItemData ItemOID="SV.DOMAIN" Value="SV"/>
         <ItemData ItemOID="SV.USUBJID" Value="01-701-1047"/>
         <ItemData ItemOID="SV.VISITNUM" Value="6"/>
         <ItemData ItemOID="SV.VISIT" Value="AMBUL ECG REMOVAL"/>
         <ItemData ItemOID="SV.VISITDY" Value="30"/>
         <ItemData ItemOID="SV.SVSTDTC" Value="2013-03-29"/>
         <ItemData ItemOID="SV.SVENDTC" Value="2013-03-29"/>
      </ItemGroupData>
      <ItemGroupData data:ItemGroupDataSeq="75" ItemGroupOID="SV">
         <ItemData ItemOID="SV.STUDYID" Value="CDISCPILOT01"/>
         <ItemData ItemOID="SV.DOMAIN" Value="SV"/>
         <ItemData ItemOID="SV.USUBJID" Value="01-701-1047"/>
         <ItemData ItemOID="SV.VISITNUM" Value="6.1"/>
         <ItemData ItemOID="SV.VISIT" Value="UNSCHEDULED 6.1"/>
         <ItemData ItemOID="SV.SVSTDTC" Value="2013-04-07"/>
         <ItemData ItemOID="SV.SVENDTC" Value="2013-04-07"/>
      </ItemGroupData>
      <ItemGroupData data:ItemGroupDataSeq="76" ItemGroupOID="SV">
         <ItemData ItemOID="SV.STUDYID" Value="CDISCPILOT01"/>
         <ItemData ItemOID="SV.DOMAIN" Value="SV"/>
         <ItemData ItemOID="SV.USUBJID" Value="01-701-1047"/>
         <ItemData ItemOID="SV.VISITNUM" Value="201"/>
         <ItemData ItemOID="SV.VISIT" Value="RETRIEVAL"/>
         <ItemData ItemOID="SV.VISITDY" Value="168"/>
         <ItemData ItemOID="SV.SVSTDTC" Value="2013-07-28"/>
         <ItemData ItemOID="SV.SVENDTC" Value="2013-07-28"/>
      </ItemGroupData>
      <ItemGroupData data:ItemGroupDataSeq="77" ItemGroupOID="SV">
         <ItemData ItemOID="SV.STUDYID" Value="CDISCPILOT01"/>
         <ItemData ItemOID="SV.DOMAIN" Value="SV"/>
         <ItemData ItemOID="SV.USUBJID" Value="01-701-1057"/>
         <ItemData ItemOID="SV.VISITNUM" Value="1"/>
         <ItemData ItemOID="SV.VISIT" Value="SCREENING 1"/>
         <ItemData ItemOID="SV.VISITDY" Value="-7"/>
         <ItemData ItemOID="SV.SVSTDTC" Value="2013-12-20"/>
         <ItemData ItemOID="SV.SVENDTC" Value="2013-12-20"/>
      </ItemGroupData>
      <ItemGroupData data:ItemGroupDataSeq="78" ItemGroupOID="SV">
         <ItemData ItemOID="SV.STUDYID" Value="CDISCPILOT01"/>
         <ItemData ItemOID="SV.DOMAIN" Value="SV"/>
         <ItemData ItemOID="SV.USUBJID" Value="01-701-1097"/>
         <ItemData ItemOID="SV.VISITNUM" Value="1"/>
         <ItemData ItemOID="SV.VISIT" Value="SCREENING 1"/>
         <ItemData ItemOID="SV.VISITDY" Value="-7"/>
         <ItemData ItemOID="SV.SVSTDTC" Value="2013-12-23"/>
         <ItemData ItemOID="SV.SVENDTC" Value="2013-12-23"/>
      </ItemGroupData>
      <ItemGroupData data:ItemGroupDataSeq="79" ItemGroupOID="SV">
         <ItemData ItemOID="SV.STUDYID" Value="CDISCPILOT01"/>
         <ItemData ItemOID="SV.DOMAIN" Value="SV"/>
         <ItemData ItemOID="SV.USUBJID" Value="01-701-1097"/>
         <ItemData ItemOID="SV.VISITNUM" Value="2"/>
         <ItemData ItemOID="SV.VISIT" Value="SCREENING 2"/>
         <ItemData ItemOID="SV.VISITDY" Value="-1"/>
         <ItemData ItemOID="SV.SVSTDTC" Value="2013-12-30"/>
         <ItemData ItemOID="SV.SVENDTC" Value="2013-12-30"/>
      </ItemGroupData>
      <ItemGroupData data:ItemGroupDataSeq="80" ItemGroupOID="SV">
         <ItemData ItemOID="SV.STUDYID" Value="CDISCPILOT01"/>
         <ItemData ItemOID="SV.DOMAIN" Value="SV"/>
         <ItemData ItemOID="SV.USUBJID" Value="01-701-1097"/>
         <ItemData ItemOID="SV.VISITNUM" Value="3"/>
         <ItemData ItemOID="SV.VISIT" Value="BASELINE"/>
         <ItemData ItemOID="SV.VISITDY" Value="1"/>
         <ItemData ItemOID="SV.SVSTDTC" Value="2014-01-01"/>
         <ItemData ItemOID="SV.SVENDTC" Value="2014-01-01"/>
      </ItemGroupData>
      <ItemGroupData data:ItemGroupDataSeq="81" ItemGroupOID="SV">
         <ItemData ItemOID="SV.STUDYID" Value="CDISCPILOT01"/>
         <ItemData ItemOID="SV.DOMAIN" Value="SV"/>
         <ItemData ItemOID="SV.USUBJID" Value="01-701-1097"/>
         <ItemData ItemOID="SV.VISITNUM" Value="3.5"/>
         <ItemData ItemOID="SV.VISIT" Value="AMBUL ECG PLACEMENT"/>
         <ItemData ItemOID="SV.VISITDY" Value="13"/>
         <ItemData ItemOID="SV.SVSTDTC" Value="2014-01-14"/>
         <ItemData ItemOID="SV.SVENDTC" Value="2014-01-14"/>
      </ItemGroupData>
      <ItemGroupData data:ItemGroupDataSeq="82" ItemGroupOID="SV">
         <ItemData ItemOID="SV.STUDYID" Value="CDISCPILOT01"/>
         <ItemData ItemOID="SV.DOMAIN" Value="SV"/>
         <ItemData ItemOID="SV.USUBJID" Value="01-701-1097"/>
         <ItemData ItemOID="SV.VISITNUM" Value="4"/>
         <ItemData ItemOID="SV.VISIT" Value="WEEK 2"/>
         <ItemData ItemOID="SV.VISITDY" Value="14"/>
         <ItemData ItemOID="SV.SVSTDTC" Value="2014-01-15"/>
         <ItemData ItemOID="SV.SVENDTC" Value="2014-01-15"/>
      </ItemGroupData>
      <ItemGroupData data:ItemGroupDataSeq="83" ItemGroupOID="SV">
         <ItemData ItemOID="SV.STUDYID" Value="CDISCPILOT01"/>
         <ItemData ItemOID="SV.DOMAIN" Value="SV"/>
         <ItemData ItemOID="SV.USUBJID" Value="01-701-1097"/>
         <ItemData ItemOID="SV.VISITNUM" Value="5"/>
         <ItemData ItemOID="SV.VISIT" Value="WEEK 4"/>
         <ItemData ItemOID="SV.VISITDY" Value="28"/>
         <ItemData ItemOID="SV.SVSTDTC" Value="2014-01-29"/>
         <ItemData ItemOID="SV.SVENDTC" Value="2014-01-29"/>
      </ItemGroupData>
      <ItemGroupData data:ItemGroupDataSeq="84" ItemGroupOID="SV">
         <ItemData ItemOID="SV.STUDYID" Value="CDISCPILOT01"/>
         <ItemData ItemOID="SV.DOMAIN" Value="SV"/>
         <ItemData ItemOID="SV.USUBJID" Value="01-701-1097"/>
         <ItemData ItemOID="SV.VISITNUM" Value="6"/>
         <ItemData ItemOID="SV.VISIT" Value="AMBUL ECG REMOVAL"/>
         <ItemData ItemOID="SV.VISITDY" Value="30"/>
         <ItemData ItemOID="SV.SVSTDTC" Value="2014-02-04"/>
         <ItemData ItemOID="SV.SVENDTC" Value="2014-02-04"/>
      </ItemGroupData>
      <ItemGroupData data:ItemGroupDataSeq="85" ItemGroupOID="SV">
         <ItemData ItemOID="SV.STUDYID" Value="CDISCPILOT01"/>
         <ItemData ItemOID="SV.DOMAIN" Value="SV"/>
         <ItemData ItemOID="SV.USUBJID" Value="01-701-1097"/>
         <ItemData ItemOID="SV.VISITNUM" Value="7"/>
         <ItemData ItemOID="SV.VISIT" Value="WEEK 6"/>
         <ItemData ItemOID="SV.VISITDY" Value="42"/>
         <ItemData ItemOID="SV.SVSTDTC" Value="2014-02-11"/>
         <ItemData ItemOID="SV.SVENDTC" Value="2014-02-11"/>
      </ItemGroupData>
      <ItemGroupData data:ItemGroupDataSeq="86" ItemGroupOID="SV">
         <ItemData ItemOID="SV.STUDYID" Value="CDISCPILOT01"/>
         <ItemData ItemOID="SV.DOMAIN" Value="SV"/>
         <ItemData ItemOID="SV.USUBJID" Value="01-701-1097"/>
         <ItemData ItemOID="SV.VISITNUM" Value="8"/>
         <ItemData ItemOID="SV.VISIT" Value="WEEK 8"/>
         <ItemData ItemOID="SV.VISITDY" Value="56"/>
         <ItemData ItemOID="SV.SVSTDTC" Value="2014-02-26"/>
         <ItemData ItemOID="SV.SVENDTC" Value="2014-02-26"/>
      </ItemGroupData>
      <ItemGroupData data:ItemGroupDataSeq="87" ItemGroupOID="SV">
         <ItemData ItemOID="SV.STUDYID" Value="CDISCPILOT01"/>
         <ItemData ItemOID="SV.DOMAIN" Value="SV"/>
         <ItemData ItemOID="SV.USUBJID" Value="01-701-1097"/>
         <ItemData ItemOID="SV.VISITNUM" Value="9"/>
         <ItemData ItemOID="SV.VISIT" Value="WEEK 12"/>
         <ItemData ItemOID="SV.VISITDY" Value="84"/>
         <ItemData ItemOID="SV.SVSTDTC" Value="2014-03-26"/>
         <ItemData ItemOID="SV.SVENDTC" Value="2014-03-26"/>
      </ItemGroupData>
      <ItemGroupData data:ItemGroupDataSeq="88" ItemGroupOID="SV">
         <ItemData ItemOID="SV.STUDYID" Value="CDISCPILOT01"/>
         <ItemData ItemOID="SV.DOMAIN" Value="SV"/>
         <ItemData ItemOID="SV.USUBJID" Value="01-701-1097"/>
         <ItemData ItemOID="SV.VISITNUM" Value="9.1"/>
         <ItemData ItemOID="SV.VISIT" Value="WEEK 14 (T)"/>
         <ItemData ItemOID="SV.VISITDY" Value="98"/>
         <ItemData ItemOID="SV.SVSTDTC" Value="2014-04-09"/>
         <ItemData ItemOID="SV.SVENDTC" Value="2014-04-09"/>
      </ItemGroupData>
      <ItemGroupData data:ItemGroupDataSeq="89" ItemGroupOID="SV">
         <ItemData ItemOID="SV.STUDYID" Value="CDISCPILOT01"/>
         <ItemData ItemOID="SV.DOMAIN" Value="SV"/>
         <ItemData ItemOID="SV.USUBJID" Value="01-701-1097"/>
         <ItemData ItemOID="SV.VISITNUM" Value="10"/>
         <ItemData ItemOID="SV.VISIT" Value="WEEK 16"/>
         <ItemData ItemOID="SV.VISITDY" Value="112"/>
         <ItemData ItemOID="SV.SVSTDTC" Value="2014-04-23"/>
         <ItemData ItemOID="SV.SVENDTC" Value="2014-04-23"/>
      </ItemGroupData>
      <ItemGroupData data:ItemGroupDataSeq="90" ItemGroupOID="SV">
         <ItemData ItemOID="SV.STUDYID" Value="CDISCPILOT01"/>
         <ItemData ItemOID="SV.DOMAIN" Value="SV"/>
         <ItemData ItemOID="SV.USUBJID" Value="01-701-1097"/>
         <ItemData ItemOID="SV.VISITNUM" Value="10.1"/>
         <ItemData ItemOID="SV.VISIT" Value="WEEK 18 (T)"/>
         <ItemData ItemOID="SV.VISITDY" Value="126"/>
         <ItemData ItemOID="SV.SVSTDTC" Value="2014-05-07"/>
         <ItemData ItemOID="SV.SVENDTC" Value="2014-05-07"/>
      </ItemGroupData>
      <ItemGroupData data:ItemGroupDataSeq="91" ItemGroupOID="SV">
         <ItemData ItemOID="SV.STUDYID" Value="CDISCPILOT01"/>
         <ItemData ItemOID="SV.DOMAIN" Value="SV"/>
         <ItemData ItemOID="SV.USUBJID" Value="01-701-1097"/>
         <ItemData ItemOID="SV.VISITNUM" Value="11"/>
         <ItemData ItemOID="SV.VISIT" Value="WEEK 20"/>
         <ItemData ItemOID="SV.VISITDY" Value="140"/>
         <ItemData ItemOID="SV.SVSTDTC" Value="2014-05-21"/>
         <ItemData ItemOID="SV.SVENDTC" Value="2014-05-21"/>
      </ItemGroupData>
      <ItemGroupData data:ItemGroupDataSeq="92" ItemGroupOID="SV">
         <ItemData ItemOID="SV.STUDYID" Value="CDISCPILOT01"/>
         <ItemData ItemOID="SV.DOMAIN" Value="SV"/>
         <ItemData ItemOID="SV.USUBJID" Value="01-701-1097"/>
         <ItemData ItemOID="SV.VISITNUM" Value="11.1"/>
         <ItemData ItemOID="SV.VISIT" Value="WEEK 22 (T)"/>
         <ItemData ItemOID="SV.VISITDY" Value="154"/>
         <ItemData ItemOID="SV.SVSTDTC" Value="2014-06-04"/>
         <ItemData ItemOID="SV.SVENDTC" Value="2014-06-04"/>
      </ItemGroupData>
      <ItemGroupData data:ItemGroupDataSeq="93" ItemGroupOID="SV">
         <ItemData ItemOID="SV.STUDYID" Value="CDISCPILOT01"/>
         <ItemData ItemOID="SV.DOMAIN" Value="SV"/>
         <ItemData ItemOID="SV.USUBJID" Value="01-701-1097"/>
         <ItemData ItemOID="SV.VISITNUM" Value="12"/>
         <ItemData ItemOID="SV.VISIT" Value="WEEK 24"/>
         <ItemData ItemOID="SV.VISITDY" Value="168"/>
         <ItemData ItemOID="SV.SVSTDTC" Value="2014-06-18"/>
         <ItemData ItemOID="SV.SVENDTC" Value="2014-06-18"/>
      </ItemGroupData>
      <ItemGroupData data:ItemGroupDataSeq="94" ItemGroupOID="SV">
         <ItemData ItemOID="SV.STUDYID" Value="CDISCPILOT01"/>
         <ItemData ItemOID="SV.DOMAIN" Value="SV"/>
         <ItemData ItemOID="SV.USUBJID" Value="01-701-1097"/>
         <ItemData ItemOID="SV.VISITNUM" Value="13"/>
         <ItemData ItemOID="SV.VISIT" Value="WEEK 26"/>
         <ItemData ItemOID="SV.VISITDY" Value="182"/>
         <ItemData ItemOID="SV.SVSTDTC" Value="2014-07-09"/>
         <ItemData ItemOID="SV.SVENDTC" Value="2014-07-09"/>
      </ItemGroupData>
      <ItemGroupData data:ItemGroupDataSeq="95" ItemGroupOID="SV">
         <ItemData ItemOID="SV.STUDYID" Value="CDISCPILOT01"/>
         <ItemData ItemOID="SV.DOMAIN" Value="SV"/>
         <ItemData ItemOID="SV.USUBJID" Value="01-701-1111"/>
         <ItemData ItemOID="SV.VISITNUM" Value="1"/>
         <ItemData ItemOID="SV.VISIT" Value="SCREENING 1"/>
         <ItemData ItemOID="SV.VISITDY" Value="-7"/>
         <ItemData ItemOID="SV.SVSTDTC" Value="2012-08-25"/>
         <ItemData ItemOID="SV.SVENDTC" Value="2012-08-25"/>
      </ItemGroupData>
      <ItemGroupData data:ItemGroupDataSeq="96" ItemGroupOID="SV">
         <ItemData ItemOID="SV.STUDYID" Value="CDISCPILOT01"/>
         <ItemData ItemOID="SV.DOMAIN" Value="SV"/>
         <ItemData ItemOID="SV.USUBJID" Value="01-701-1111"/>
         <ItemData ItemOID="SV.VISITNUM" Value="2"/>
         <ItemData ItemOID="SV.VISIT" Value="SCREENING 2"/>
         <ItemData ItemOID="SV.VISITDY" Value="-1"/>
         <ItemData ItemOID="SV.SVSTDTC" Value="2012-09-05"/>
         <ItemData ItemOID="SV.SVENDTC" Value="2012-09-05"/>
      </ItemGroupData>
      <ItemGroupData data:ItemGroupDataSeq="97" ItemGroupOID="SV">
         <ItemData ItemOID="SV.STUDYID" Value="CDISCPILOT01"/>
         <ItemData ItemOID="SV.DOMAIN" Value="SV"/>
         <ItemData ItemOID="SV.USUBJID" Value="01-701-1111"/>
         <ItemData ItemOID="SV.VISITNUM" Value="3"/>
         <ItemData ItemOID="SV.VISIT" Value="BASELINE"/>
         <ItemData ItemOID="SV.VISITDY" Value="1"/>
         <ItemData ItemOID="SV.SVSTDTC" Value="2012-09-07"/>
         <ItemData ItemOID="SV.SVENDTC" Value="2012-09-07"/>
      </ItemGroupData>
      <ItemGroupData data:ItemGroupDataSeq="98" ItemGroupOID="SV">
         <ItemData ItemOID="SV.STUDYID" Value="CDISCPILOT01"/>
         <ItemData ItemOID="SV.DOMAIN" Value="SV"/>
         <ItemData ItemOID="SV.USUBJID" Value="01-701-1111"/>
         <ItemData ItemOID="SV.VISITNUM" Value="4"/>
         <ItemData ItemOID="SV.VISIT" Value="WEEK 2"/>
         <ItemData ItemOID="SV.VISITDY" Value="14"/>
         <ItemData ItemOID="SV.SVSTDTC" Value="2012-09-17"/>
         <ItemData ItemOID="SV.SVENDTC" Value="2012-09-17"/>
      </ItemGroupData>
      <ItemGroupData data:ItemGroupDataSeq="99" ItemGroupOID="SV">
         <ItemData ItemOID="SV.STUDYID" Value="CDISCPILOT01"/>
         <ItemData ItemOID="SV.DOMAIN" Value="SV"/>
         <ItemData ItemOID="SV.USUBJID" Value="01-701-1111"/>
         <ItemData ItemOID="SV.VISITNUM" Value="101"/>
         <ItemData ItemOID="SV.VISIT" Value="AE FOLLOW-UP"/>
         <ItemData ItemOID="SV.SVSTDTC" Value="2012-09-29"/>
         <ItemData ItemOID="SV.SVENDTC" Value="2012-09-29"/>
      </ItemGroupData>
      <ItemGroupData data:ItemGroupDataSeq="100" ItemGroupOID="SV">
         <ItemData ItemOID="SV.STUDYID" Value="CDISCPILOT01"/>
         <ItemData ItemOID="SV.DOMAIN" Value="SV"/>
         <ItemData ItemOID="SV.USUBJID" Value="01-701-1111"/>
         <ItemData ItemOID="SV.VISITNUM" Value="201"/>
         <ItemData ItemOID="SV.VISIT" Value="RETRIEVAL"/>
         <ItemData ItemOID="SV.VISITDY" Value="168"/>
         <ItemData ItemOID="SV.SVSTDTC" Value="2013-02-22"/>
         <ItemData ItemOID="SV.SVENDTC" Value="2013-02-22"/>
      </ItemGroupData>
      <ItemGroupData data:ItemGroupDataSeq="101" ItemGroupOID="SV">
         <ItemData ItemOID="SV.STUDYID" Value="CDISCPILOT01"/>
         <ItemData ItemOID="SV.DOMAIN" Value="SV"/>
         <ItemData ItemOID="SV.USUBJID" Value="01-701-1115"/>
         <ItemData ItemOID="SV.VISITNUM" Value="1"/>
         <ItemData ItemOID="SV.VISIT" Value="SCREENING 1"/>
         <ItemData ItemOID="SV.VISITDY" Value="-7"/>
         <ItemData ItemOID="SV.SVSTDTC" Value="2012-11-23"/>
         <ItemData ItemOID="SV.SVENDTC" Value="2012-11-23"/>
      </ItemGroupData>
      <ItemGroupData data:ItemGroupDataSeq="102" ItemGroupOID="SV">
         <ItemData ItemOID="SV.STUDYID" Value="CDISCPILOT01"/>
         <ItemData ItemOID="SV.DOMAIN" Value="SV"/>
         <ItemData ItemOID="SV.USUBJID" Value="01-701-1115"/>
         <ItemData ItemOID="SV.VISITNUM" Value="2"/>
         <ItemData ItemOID="SV.VISIT" Value="SCREENING 2"/>
         <ItemData ItemOID="SV.VISITDY" Value="-1"/>
         <ItemData ItemOID="SV.SVSTDTC" Value="2012-11-28"/>
         <ItemData ItemOID="SV.SVENDTC" Value="2012-11-28"/>
      </ItemGroupData>
      <ItemGroupData data:ItemGroupDataSeq="103" ItemGroupOID="SV">
         <ItemData ItemOID="SV.STUDYID" Value="CDISCPILOT01"/>
         <ItemData ItemOID="SV.DOMAIN" Value="SV"/>
         <ItemData ItemOID="SV.USUBJID" Value="01-701-1115"/>
         <ItemData ItemOID="SV.VISITNUM" Value="3"/>
         <ItemData ItemOID="SV.VISIT" Value="BASELINE"/>
         <ItemData ItemOID="SV.VISITDY" Value="1"/>
         <ItemData ItemOID="SV.SVSTDTC" Value="2012-11-30"/>
         <ItemData ItemOID="SV.SVENDTC" Value="2012-11-30"/>
      </ItemGroupData>
      <ItemGroupData data:ItemGroupDataSeq="104" ItemGroupOID="SV">
         <ItemData ItemOID="SV.STUDYID" Value="CDISCPILOT01"/>
         <ItemData ItemOID="SV.DOMAIN" Value="SV"/>
         <ItemData ItemOID="SV.USUBJID" Value="01-701-1115"/>
         <ItemData ItemOID="SV.VISITNUM" Value="3.5"/>
         <ItemData ItemOID="SV.VISIT" Value="AMBUL ECG PLACEMENT"/>
         <ItemData ItemOID="SV.VISITDY" Value="13"/>
         <ItemData ItemOID="SV.SVSTDTC" Value="2012-12-12"/>
         <ItemData ItemOID="SV.SVENDTC" Value="2012-12-12"/>
      </ItemGroupData>
      <ItemGroupData data:ItemGroupDataSeq="105" ItemGroupOID="SV">
         <ItemData ItemOID="SV.STUDYID" Value="CDISCPILOT01"/>
         <ItemData ItemOID="SV.DOMAIN" Value="SV"/>
         <ItemData ItemOID="SV.USUBJID" Value="01-701-1115"/>
         <ItemData ItemOID="SV.VISITNUM" Value="4"/>
         <ItemData ItemOID="SV.VISIT" Value="WEEK 2"/>
         <ItemData ItemOID="SV.VISITDY" Value="14"/>
         <ItemData ItemOID="SV.SVSTDTC" Value="2012-12-13"/>
         <ItemData ItemOID="SV.SVENDTC" Value="2012-12-13"/>
      </ItemGroupData>
      <ItemGroupData data:ItemGroupDataSeq="106" ItemGroupOID="SV">
         <ItemData ItemOID="SV.STUDYID" Value="CDISCPILOT01"/>
         <ItemData ItemOID="SV.DOMAIN" Value="SV"/>
         <ItemData ItemOID="SV.USUBJID" Value="01-701-1115"/>
         <ItemData ItemOID="SV.VISITNUM" Value="5"/>
         <ItemData ItemOID="SV.VISIT" Value="WEEK 4"/>
         <ItemData ItemOID="SV.VISITDY" Value="28"/>
         <ItemData ItemOID="SV.SVSTDTC" Value="2012-12-26"/>
         <ItemData ItemOID="SV.SVENDTC" Value="2012-12-26"/>
      </ItemGroupData>
      <ItemGroupData data:ItemGroupDataSeq="107" ItemGroupOID="SV">
         <ItemData ItemOID="SV.STUDYID" Value="CDISCPILOT01"/>
         <ItemData ItemOID="SV.DOMAIN" Value="SV"/>
         <ItemData ItemOID="SV.USUBJID" Value="01-701-1115"/>
         <ItemData ItemOID="SV.VISITNUM" Value="5.1"/>
         <ItemData ItemOID="SV.VISIT" Value="UNSCHEDULED 5.1"/>
         <ItemData ItemOID="SV.SVSTDTC" Value="2012-12-28"/>
         <ItemData ItemOID="SV.SVENDTC" Value="2012-12-28"/>
      </ItemGroupData>
      <ItemGroupData data:ItemGroupDataSeq="108" ItemGroupOID="SV">
         <ItemData ItemOID="SV.STUDYID" Value="CDISCPILOT01"/>
         <ItemData ItemOID="SV.DOMAIN" Value="SV"/>
         <ItemData ItemOID="SV.USUBJID" Value="01-701-1115"/>
         <ItemData ItemOID="SV.VISITNUM" Value="6"/>
         <ItemData ItemOID="SV.VISIT" Value="AMBUL ECG REMOVAL"/>
         <ItemData ItemOID="SV.VISITDY" Value="30"/>
         <ItemData ItemOID="SV.SVSTDTC" Value="2012-12-28"/>
         <ItemData ItemOID="SV.SVENDTC" Value="2012-12-28"/>
      </ItemGroupData>
      <ItemGroupData data:ItemGroupDataSeq="109" ItemGroupOID="SV">
         <ItemData ItemOID="SV.STUDYID" Value="CDISCPILOT01"/>
         <ItemData ItemOID="SV.DOMAIN" Value="SV"/>
         <ItemData ItemOID="SV.USUBJID" Value="01-701-1115"/>
         <ItemData ItemOID="SV.VISITNUM" Value="7"/>
         <ItemData ItemOID="SV.VISIT" Value="WEEK 6"/>
         <ItemData ItemOID="SV.VISITDY" Value="42"/>
         <ItemData ItemOID="SV.SVSTDTC" Value="2013-01-10"/>
         <ItemData ItemOID="SV.SVENDTC" Value="2013-01-10"/>
      </ItemGroupData>
      <ItemGroupData data:ItemGroupDataSeq="110" ItemGroupOID="SV">
         <ItemData ItemOID="SV.STUDYID" Value="CDISCPILOT01"/>
         <ItemData ItemOID="SV.DOMAIN" Value="SV"/>
         <ItemData ItemOID="SV.USUBJID" Value="01-701-1115"/>
         <ItemData ItemOID="SV.VISITNUM" Value="8"/>
         <ItemData ItemOID="SV.VISIT" Value="WEEK 8"/>
         <ItemData ItemOID="SV.VISITDY" Value="56"/>
         <ItemData ItemOID="SV.SVSTDTC" Value="2013-01-23"/>
         <ItemData ItemOID="SV.SVENDTC" Value="2013-01-23"/>
      </ItemGroupData>
      <ItemGroupData data:ItemGroupDataSeq="111" ItemGroupOID="SV">
         <ItemData ItemOID="SV.STUDYID" Value="CDISCPILOT01"/>
         <ItemData ItemOID="SV.DOMAIN" Value="SV"/>
         <ItemData ItemOID="SV.USUBJID" Value="01-701-1115"/>
         <ItemData ItemOID="SV.VISITNUM" Value="101"/>
         <ItemData ItemOID="SV.VISIT" Value="AE FOLLOW-UP"/>
         <ItemData ItemOID="SV.SVSTDTC" Value="2013-02-14"/>
         <ItemData ItemOID="SV.SVENDTC" Value="2013-02-14"/>
      </ItemGroupData>
      <ItemGroupData data:ItemGroupDataSeq="112" ItemGroupOID="SV">
         <ItemData ItemOID="SV.STUDYID" Value="CDISCPILOT01"/>
         <ItemData ItemOID="SV.DOMAIN" Value="SV"/>
         <ItemData ItemOID="SV.USUBJID" Value="01-701-1115"/>
         <ItemData ItemOID="SV.VISITNUM" Value="201"/>
         <ItemData ItemOID="SV.VISIT" Value="RETRIEVAL"/>
         <ItemData ItemOID="SV.VISITDY" Value="168"/>
         <ItemData ItemOID="SV.SVSTDTC" Value="2013-05-20"/>
         <ItemData ItemOID="SV.SVENDTC" Value="2013-05-20"/>
      </ItemGroupData>
      <ItemGroupData data:ItemGroupDataSeq="113" ItemGroupOID="SV">
         <ItemData ItemOID="SV.STUDYID" Value="CDISCPILOT01"/>
         <ItemData ItemOID="SV.DOMAIN" Value="SV"/>
         <ItemData ItemOID="SV.USUBJID" Value="01-701-1118"/>
         <ItemData ItemOID="SV.VISITNUM" Value="1"/>
         <ItemData ItemOID="SV.VISIT" Value="SCREENING 1"/>
         <ItemData ItemOID="SV.VISITDY" Value="-7"/>
         <ItemData ItemOID="SV.SVSTDTC" Value="2014-02-27"/>
         <ItemData ItemOID="SV.SVENDTC" Value="2014-02-27"/>
      </ItemGroupData>
      <ItemGroupData data:ItemGroupDataSeq="114" ItemGroupOID="SV">
         <ItemData ItemOID="SV.STUDYID" Value="CDISCPILOT01"/>
         <ItemData ItemOID="SV.DOMAIN" Value="SV"/>
         <ItemData ItemOID="SV.USUBJID" Value="01-701-1118"/>
         <ItemData ItemOID="SV.VISITNUM" Value="2"/>
         <ItemData ItemOID="SV.VISIT" Value="SCREENING 2"/>
         <ItemData ItemOID="SV.VISITDY" Value="-1"/>
         <ItemData ItemOID="SV.SVSTDTC" Value="2014-03-10"/>
         <ItemData ItemOID="SV.SVENDTC" Value="2014-03-10"/>
      </ItemGroupData>
      <ItemGroupData data:ItemGroupDataSeq="115" ItemGroupOID="SV">
         <ItemData ItemOID="SV.STUDYID" Value="CDISCPILOT01"/>
         <ItemData ItemOID="SV.DOMAIN" Value="SV"/>
         <ItemData ItemOID="SV.USUBJID" Value="01-701-1118"/>
         <ItemData ItemOID="SV.VISITNUM" Value="3"/>
         <ItemData ItemOID="SV.VISIT" Value="BASELINE"/>
         <ItemData ItemOID="SV.VISITDY" Value="1"/>
         <ItemData ItemOID="SV.SVSTDTC" Value="2014-03-12"/>
         <ItemData ItemOID="SV.SVENDTC" Value="2014-03-12"/>
      </ItemGroupData>
      <ItemGroupData data:ItemGroupDataSeq="116" ItemGroupOID="SV">
         <ItemData ItemOID="SV.STUDYID" Value="CDISCPILOT01"/>
         <ItemData ItemOID="SV.DOMAIN" Value="SV"/>
         <ItemData ItemOID="SV.USUBJID" Value="01-701-1118"/>
         <ItemData ItemOID="SV.VISITNUM" Value="3.5"/>
         <ItemData ItemOID="SV.VISIT" Value="AMBUL ECG PLACEMENT"/>
         <ItemData ItemOID="SV.VISITDY" Value="13"/>
         <ItemData ItemOID="SV.SVSTDTC" Value="2014-03-25"/>
         <ItemData ItemOID="SV.SVENDTC" Value="2014-03-25"/>
      </ItemGroupData>
      <ItemGroupData data:ItemGroupDataSeq="117" ItemGroupOID="SV">
         <ItemData ItemOID="SV.STUDYID" Value="CDISCPILOT01"/>
         <ItemData ItemOID="SV.DOMAIN" Value="SV"/>
         <ItemData ItemOID="SV.USUBJID" Value="01-701-1118"/>
         <ItemData ItemOID="SV.VISITNUM" Value="4"/>
         <ItemData ItemOID="SV.VISIT" Value="WEEK 2"/>
         <ItemData ItemOID="SV.VISITDY" Value="14"/>
         <ItemData ItemOID="SV.SVSTDTC" Value="2014-03-26"/>
         <ItemData ItemOID="SV.SVENDTC" Value="2014-03-26"/>
      </ItemGroupData>
      <ItemGroupData data:ItemGroupDataSeq="118" ItemGroupOID="SV">
         <ItemData ItemOID="SV.STUDYID" Value="CDISCPILOT01"/>
         <ItemData ItemOID="SV.DOMAIN" Value="SV"/>
         <ItemData ItemOID="SV.USUBJID" Value="01-701-1118"/>
         <ItemData ItemOID="SV.VISITNUM" Value="5"/>
         <ItemData ItemOID="SV.VISIT" Value="WEEK 4"/>
         <ItemData ItemOID="SV.VISITDY" Value="28"/>
         <ItemData ItemOID="SV.SVSTDTC" Value="2014-04-09"/>
         <ItemData ItemOID="SV.SVENDTC" Value="2014-04-09"/>
      </ItemGroupData>
      <ItemGroupData data:ItemGroupDataSeq="119" ItemGroupOID="SV">
         <ItemData ItemOID="SV.STUDYID" Value="CDISCPILOT01"/>
         <ItemData ItemOID="SV.DOMAIN" Value="SV"/>
         <ItemData ItemOID="SV.USUBJID" Value="01-701-1118"/>
         <ItemData ItemOID="SV.VISITNUM" Value="6"/>
         <ItemData ItemOID="SV.VISIT" Value="AMBUL ECG REMOVAL"/>
         <ItemData ItemOID="SV.VISITDY" Value="30"/>
         <ItemData ItemOID="SV.SVSTDTC" Value="2014-04-11"/>
         <ItemData ItemOID="SV.SVENDTC" Value="2014-04-11"/>
      </ItemGroupData>
      <ItemGroupData data:ItemGroupDataSeq="120" ItemGroupOID="SV">
         <ItemData ItemOID="SV.STUDYID" Value="CDISCPILOT01"/>
         <ItemData ItemOID="SV.DOMAIN" Value="SV"/>
         <ItemData ItemOID="SV.USUBJID" Value="01-701-1118"/>
         <ItemData ItemOID="SV.VISITNUM" Value="7"/>
         <ItemData ItemOID="SV.VISIT" Value="WEEK 6"/>
         <ItemData ItemOID="SV.VISITDY" Value="42"/>
         <ItemData ItemOID="SV.SVSTDTC" Value="2014-04-23"/>
         <ItemData ItemOID="SV.SVENDTC" Value="2014-04-23"/>
      </ItemGroupData>
      <ItemGroupData data:ItemGroupDataSeq="121" ItemGroupOID="SV">
         <ItemData ItemOID="SV.STUDYID" Value="CDISCPILOT01"/>
         <ItemData ItemOID="SV.DOMAIN" Value="SV"/>
         <ItemData ItemOID="SV.USUBJID" Value="01-701-1118"/>
         <ItemData ItemOID="SV.VISITNUM" Value="8"/>
         <ItemData ItemOID="SV.VISIT" Value="WEEK 8"/>
         <ItemData ItemOID="SV.VISITDY" Value="56"/>
         <ItemData ItemOID="SV.SVSTDTC" Value="2014-05-08"/>
         <ItemData ItemOID="SV.SVENDTC" Value="2014-05-08"/>
      </ItemGroupData>
      <ItemGroupData data:ItemGroupDataSeq="122" ItemGroupOID="SV">
         <ItemData ItemOID="SV.STUDYID" Value="CDISCPILOT01"/>
         <ItemData ItemOID="SV.DOMAIN" Value="SV"/>
         <ItemData ItemOID="SV.USUBJID" Value="01-701-1118"/>
         <ItemData ItemOID="SV.VISITNUM" Value="8.1"/>
         <ItemData ItemOID="SV.VISIT" Value="WEEK 10 (T)"/>
         <ItemData ItemOID="SV.VISITDY" Value="70"/>
         <ItemData ItemOID="SV.SVSTDTC" Value="2014-05-21"/>
         <ItemData ItemOID="SV.SVENDTC" Value="2014-05-21"/>
      </ItemGroupData>
      <ItemGroupData data:ItemGroupDataSeq="123" ItemGroupOID="SV">
         <ItemData ItemOID="SV.STUDYID" Value="CDISCPILOT01"/>
         <ItemData ItemOID="SV.DOMAIN" Value="SV"/>
         <ItemData ItemOID="SV.USUBJID" Value="01-701-1118"/>
         <ItemData ItemOID="SV.VISITNUM" Value="9"/>
         <ItemData ItemOID="SV.VISIT" Value="WEEK 12"/>
         <ItemData ItemOID="SV.VISITDY" Value="84"/>
         <ItemData ItemOID="SV.SVSTDTC" Value="2014-06-05"/>
         <ItemData ItemOID="SV.SVENDTC" Value="2014-06-05"/>
      </ItemGroupData>
      <ItemGroupData data:ItemGroupDataSeq="124" ItemGroupOID="SV">
         <ItemData ItemOID="SV.STUDYID" Value="CDISCPILOT01"/>
         <ItemData ItemOID="SV.DOMAIN" Value="SV"/>
         <ItemData ItemOID="SV.USUBJID" Value="01-701-1118"/>
         <ItemData ItemOID="SV.VISITNUM" Value="9.1"/>
         <ItemData ItemOID="SV.VISIT" Value="WEEK 14 (T)"/>
         <ItemData ItemOID="SV.VISITDY" Value="98"/>
         <ItemData ItemOID="SV.SVSTDTC" Value="2014-06-18"/>
         <ItemData ItemOID="SV.SVENDTC" Value="2014-06-18"/>
      </ItemGroupData>
      <ItemGroupData data:ItemGroupDataSeq="125" ItemGroupOID="SV">
         <ItemData ItemOID="SV.STUDYID" Value="CDISCPILOT01"/>
         <ItemData ItemOID="SV.DOMAIN" Value="SV"/>
         <ItemData ItemOID="SV.USUBJID" Value="01-701-1118"/>
         <ItemData ItemOID="SV.VISITNUM" Value="10"/>
         <ItemData ItemOID="SV.VISIT" Value="WEEK 16"/>
         <ItemData ItemOID="SV.VISITDY" Value="112"/>
         <ItemData ItemOID="SV.SVSTDTC" Value="2014-07-02"/>
         <ItemData ItemOID="SV.SVENDTC" Value="2014-07-02"/>
      </ItemGroupData>
      <ItemGroupData data:ItemGroupDataSeq="126" ItemGroupOID="SV">
         <ItemData ItemOID="SV.STUDYID" Value="CDISCPILOT01"/>
         <ItemData ItemOID="SV.DOMAIN" Value="SV"/>
         <ItemData ItemOID="SV.USUBJID" Value="01-701-1118"/>
         <ItemData ItemOID="SV.VISITNUM" Value="10.1"/>
         <ItemData ItemOID="SV.VISIT" Value="WEEK 18 (T)"/>
         <ItemData ItemOID="SV.VISITDY" Value="126"/>
         <ItemData ItemOID="SV.SVSTDTC" Value="2014-07-16"/>
         <ItemData ItemOID="SV.SVENDTC" Value="2014-07-16"/>
      </ItemGroupData>
      <ItemGroupData data:ItemGroupDataSeq="127" ItemGroupOID="SV">
         <ItemData ItemOID="SV.STUDYID" Value="CDISCPILOT01"/>
         <ItemData ItemOID="SV.DOMAIN" Value="SV"/>
         <ItemData ItemOID="SV.USUBJID" Value="01-701-1118"/>
         <ItemData ItemOID="SV.VISITNUM" Value="11"/>
         <ItemData ItemOID="SV.VISIT" Value="WEEK 20"/>
         <ItemData ItemOID="SV.VISITDY" Value="140"/>
         <ItemData ItemOID="SV.SVSTDTC" Value="2014-07-30"/>
         <ItemData ItemOID="SV.SVENDTC" Value="2014-07-30"/>
      </ItemGroupData>
      <ItemGroupData data:ItemGroupDataSeq="128" ItemGroupOID="SV">
         <ItemData ItemOID="SV.STUDYID" Value="CDISCPILOT01"/>
         <ItemData ItemOID="SV.DOMAIN" Value="SV"/>
         <ItemData ItemOID="SV.USUBJID" Value="01-701-1118"/>
         <ItemData ItemOID="SV.VISITNUM" Value="11.1"/>
         <ItemData ItemOID="SV.VISIT" Value="WEEK 22 (T)"/>
         <ItemData ItemOID="SV.VISITDY" Value="154"/>
         <ItemData ItemOID="SV.SVSTDTC" Value="2014-07-13"/>
         <ItemData ItemOID="SV.SVENDTC" Value="2014-07-13"/>
      </ItemGroupData>
      <ItemGroupData data:ItemGroupDataSeq="129" ItemGroupOID="SV">
         <ItemData ItemOID="SV.STUDYID" Value="CDISCPILOT01"/>
         <ItemData ItemOID="SV.DOMAIN" Value="SV"/>
         <ItemData ItemOID="SV.USUBJID" Value="01-701-1118"/>
         <ItemData ItemOID="SV.VISITNUM" Value="12"/>
         <ItemData ItemOID="SV.VISIT" Value="WEEK 24"/>
         <ItemData ItemOID="SV.VISITDY" Value="168"/>
         <ItemData ItemOID="SV.SVSTDTC" Value="2014-08-27"/>
         <ItemData ItemOID="SV.SVENDTC" Value="2014-08-27"/>
      </ItemGroupData>
      <ItemGroupData data:ItemGroupDataSeq="130" ItemGroupOID="SV">
         <ItemData ItemOID="SV.STUDYID" Value="CDISCPILOT01"/>
         <ItemData ItemOID="SV.DOMAIN" Value="SV"/>
         <ItemData ItemOID="SV.USUBJID" Value="01-701-1118"/>
         <ItemData ItemOID="SV.VISITNUM" Value="13"/>
         <ItemData ItemOID="SV.VISIT" Value="WEEK 26"/>
         <ItemData ItemOID="SV.VISITDY" Value="182"/>
         <ItemData ItemOID="SV.SVSTDTC" Value="2014-09-09"/>
         <ItemData ItemOID="SV.SVENDTC" Value="2014-09-09"/>
      </ItemGroupData>
      <ItemGroupData data:ItemGroupDataSeq="131" ItemGroupOID="SV">
         <ItemData ItemOID="SV.STUDYID" Value="CDISCPILOT01"/>
         <ItemData ItemOID="SV.DOMAIN" Value="SV"/>
         <ItemData ItemOID="SV.USUBJID" Value="01-701-1130"/>
         <ItemData ItemOID="SV.VISITNUM" Value="1"/>
         <ItemData ItemOID="SV.VISIT" Value="SCREENING 1"/>
         <ItemData ItemOID="SV.VISITDY" Value="-7"/>
         <ItemData ItemOID="SV.SVSTDTC" Value="2014-02-09"/>
         <ItemData ItemOID="SV.SVENDTC" Value="2014-02-09"/>
      </ItemGroupData>
      <ItemGroupData data:ItemGroupDataSeq="132" ItemGroupOID="SV">
         <ItemData ItemOID="SV.STUDYID" Value="CDISCPILOT01"/>
         <ItemData ItemOID="SV.DOMAIN" Value="SV"/>
         <ItemData ItemOID="SV.USUBJID" Value="01-701-1130"/>
         <ItemData ItemOID="SV.VISITNUM" Value="2"/>
         <ItemData ItemOID="SV.VISIT" Value="SCREENING 2"/>
         <ItemData ItemOID="SV.VISITDY" Value="-1"/>
         <ItemData ItemOID="SV.SVSTDTC" Value="2014-02-13"/>
         <ItemData ItemOID="SV.SVENDTC" Value="2014-02-13"/>
      </ItemGroupData>
      <ItemGroupData data:ItemGroupDataSeq="133" ItemGroupOID="SV">
         <ItemData ItemOID="SV.STUDYID" Value="CDISCPILOT01"/>
         <ItemData ItemOID="SV.DOMAIN" Value="SV"/>
         <ItemData ItemOID="SV.USUBJID" Value="01-701-1130"/>
         <ItemData ItemOID="SV.VISITNUM" Value="3"/>
         <ItemData ItemOID="SV.VISIT" Value="BASELINE"/>
         <ItemData ItemOID="SV.VISITDY" Value="1"/>
         <ItemData ItemOID="SV.SVSTDTC" Value="2014-02-15"/>
         <ItemData ItemOID="SV.SVENDTC" Value="2014-02-15"/>
      </ItemGroupData>
      <ItemGroupData data:ItemGroupDataSeq="134" ItemGroupOID="SV">
         <ItemData ItemOID="SV.STUDYID" Value="CDISCPILOT01"/>
         <ItemData ItemOID="SV.DOMAIN" Value="SV"/>
         <ItemData ItemOID="SV.USUBJID" Value="01-701-1130"/>
         <ItemData ItemOID="SV.VISITNUM" Value="3.5"/>
         <ItemData ItemOID="SV.VISIT" Value="AMBUL ECG PLACEMENT"/>
         <ItemData ItemOID="SV.VISITDY" Value="13"/>
         <ItemData ItemOID="SV.SVSTDTC" Value="2014-02-28"/>
         <ItemData ItemOID="SV.SVENDTC" Value="2014-02-28"/>
      </ItemGroupData>
      <ItemGroupData data:ItemGroupDataSeq="135" ItemGroupOID="SV">
         <ItemData ItemOID="SV.STUDYID" Value="CDISCPILOT01"/>
         <ItemData ItemOID="SV.DOMAIN" Value="SV"/>
         <ItemData ItemOID="SV.USUBJID" Value="01-701-1130"/>
         <ItemData ItemOID="SV.VISITNUM" Value="4"/>
         <ItemData ItemOID="SV.VISIT" Value="WEEK 2"/>
         <ItemData ItemOID="SV.VISITDY" Value="14"/>
         <ItemData ItemOID="SV.SVSTDTC" Value="2014-03-01"/>
         <ItemData ItemOID="SV.SVENDTC" Value="2014-03-01"/>
      </ItemGroupData>
      <ItemGroupData data:ItemGroupDataSeq="136" ItemGroupOID="SV">
         <ItemData ItemOID="SV.STUDYID" Value="CDISCPILOT01"/>
         <ItemData ItemOID="SV.DOMAIN" Value="SV"/>
         <ItemData ItemOID="SV.USUBJID" Value="01-701-1130"/>
         <ItemData ItemOID="SV.VISITNUM" Value="5"/>
         <ItemData ItemOID="SV.VISIT" Value="WEEK 4"/>
         <ItemData ItemOID="SV.VISITDY" Value="28"/>
         <ItemData ItemOID="SV.SVSTDTC" Value="2014-03-15"/>
         <ItemData ItemOID="SV.SVENDTC" Value="2014-03-15"/>
      </ItemGroupData>
      <ItemGroupData data:ItemGroupDataSeq="137" ItemGroupOID="SV">
         <ItemData ItemOID="SV.STUDYID" Value="CDISCPILOT01"/>
         <ItemData ItemOID="SV.DOMAIN" Value="SV"/>
         <ItemData ItemOID="SV.USUBJID" Value="01-701-1130"/>
         <ItemData ItemOID="SV.VISITNUM" Value="6"/>
         <ItemData ItemOID="SV.VISIT" Value="AMBUL ECG REMOVAL"/>
         <ItemData ItemOID="SV.VISITDY" Value="30"/>
         <ItemData ItemOID="SV.SVSTDTC" Value="2014-03-17"/>
         <ItemData ItemOID="SV.SVENDTC" Value="2014-03-17"/>
      </ItemGroupData>
      <ItemGroupData data:ItemGroupDataSeq="138" ItemGroupOID="SV">
         <ItemData ItemOID="SV.STUDYID" Value="CDISCPILOT01"/>
         <ItemData ItemOID="SV.DOMAIN" Value="SV"/>
         <ItemData ItemOID="SV.USUBJID" Value="01-701-1130"/>
         <ItemData ItemOID="SV.VISITNUM" Value="7"/>
         <ItemData ItemOID="SV.VISIT" Value="WEEK 6"/>
         <ItemData ItemOID="SV.VISITDY" Value="42"/>
         <ItemData ItemOID="SV.SVSTDTC" Value="2014-03-29"/>
         <ItemData ItemOID="SV.SVENDTC" Value="2014-03-29"/>
      </ItemGroupData>
      <ItemGroupData data:ItemGroupDataSeq="139" ItemGroupOID="SV">
         <ItemData ItemOID="SV.STUDYID" Value="CDISCPILOT01"/>
         <ItemData ItemOID="SV.DOMAIN" Value="SV"/>
         <ItemData ItemOID="SV.USUBJID" Value="01-701-1130"/>
         <ItemData ItemOID="SV.VISITNUM" Value="8"/>
         <ItemData ItemOID="SV.VISIT" Value="WEEK 8"/>
         <ItemData ItemOID="SV.VISITDY" Value="56"/>
         <ItemData ItemOID="SV.SVSTDTC" Value="2014-04-12"/>
         <ItemData ItemOID="SV.SVENDTC" Value="2014-04-12"/>
      </ItemGroupData>
      <ItemGroupData data:ItemGroupDataSeq="140" ItemGroupOID="SV">
         <ItemData ItemOID="SV.STUDYID" Value="CDISCPILOT01"/>
         <ItemData ItemOID="SV.DOMAIN" Value="SV"/>
         <ItemData ItemOID="SV.USUBJID" Value="01-701-1130"/>
         <ItemData ItemOID="SV.VISITNUM" Value="8.1"/>
         <ItemData ItemOID="SV.VISIT" Value="WEEK 10 (T)"/>
         <ItemData ItemOID="SV.VISITDY" Value="70"/>
         <ItemData ItemOID="SV.SVSTDTC" Value="2014-04-26"/>
         <ItemData ItemOID="SV.SVENDTC" Value="2014-04-26"/>
      </ItemGroupData>
      <ItemGroupData data:ItemGroupDataSeq="141" ItemGroupOID="SV">
         <ItemData ItemOID="SV.STUDYID" Value="CDISCPILOT01"/>
         <ItemData ItemOID="SV.DOMAIN" Value="SV"/>
         <ItemData ItemOID="SV.USUBJID" Value="01-701-1130"/>
         <ItemData ItemOID="SV.VISITNUM" Value="9"/>
         <ItemData ItemOID="SV.VISIT" Value="WEEK 12"/>
         <ItemData ItemOID="SV.VISITDY" Value="84"/>
         <ItemData ItemOID="SV.SVSTDTC" Value="2014-05-16"/>
         <ItemData ItemOID="SV.SVENDTC" Value="2014-05-16"/>
      </ItemGroupData>
      <ItemGroupData data:ItemGroupDataSeq="142" ItemGroupOID="SV">
         <ItemData ItemOID="SV.STUDYID" Value="CDISCPILOT01"/>
         <ItemData ItemOID="SV.DOMAIN" Value="SV"/>
         <ItemData ItemOID="SV.USUBJID" Value="01-701-1130"/>
         <ItemData ItemOID="SV.VISITNUM" Value="9.1"/>
         <ItemData ItemOID="SV.VISIT" Value="WEEK 14 (T)"/>
         <ItemData ItemOID="SV.VISITDY" Value="98"/>
         <ItemData ItemOID="SV.SVSTDTC" Value="2014-05-24"/>
         <ItemData ItemOID="SV.SVENDTC" Value="2014-05-24"/>
      </ItemGroupData>
      <ItemGroupData data:ItemGroupDataSeq="143" ItemGroupOID="SV">
         <ItemData ItemOID="SV.STUDYID" Value="CDISCPILOT01"/>
         <ItemData ItemOID="SV.DOMAIN" Value="SV"/>
         <ItemData ItemOID="SV.USUBJID" Value="01-701-1130"/>
         <ItemData ItemOID="SV.VISITNUM" Value="10"/>
         <ItemData ItemOID="SV.VISIT" Value="WEEK 16"/>
         <ItemData ItemOID="SV.VISITDY" Value="112"/>
         <ItemData ItemOID="SV.SVSTDTC" Value="2014-06-07"/>
         <ItemData ItemOID="SV.SVENDTC" Value="2014-06-07"/>
      </ItemGroupData>
      <ItemGroupData data:ItemGroupDataSeq="144" ItemGroupOID="SV">
         <ItemData ItemOID="SV.STUDYID" Value="CDISCPILOT01"/>
         <ItemData ItemOID="SV.DOMAIN" Value="SV"/>
         <ItemData ItemOID="SV.USUBJID" Value="01-701-1130"/>
         <ItemData ItemOID="SV.VISITNUM" Value="10.1"/>
         <ItemData ItemOID="SV.VISIT" Value="WEEK 18 (T)"/>
         <ItemData ItemOID="SV.VISITDY" Value="126"/>
         <ItemData ItemOID="SV.SVSTDTC" Value="2014-06-21"/>
         <ItemData ItemOID="SV.SVENDTC" Value="2014-06-21"/>
      </ItemGroupData>
      <ItemGroupData data:ItemGroupDataSeq="145" ItemGroupOID="SV">
         <ItemData ItemOID="SV.STUDYID" Value="CDISCPILOT01"/>
         <ItemData ItemOID="SV.DOMAIN" Value="SV"/>
         <ItemData ItemOID="SV.USUBJID" Value="01-701-1130"/>
         <ItemData ItemOID="SV.VISITNUM" Value="11"/>
         <ItemData ItemOID="SV.VISIT" Value="WEEK 20"/>
         <ItemData ItemOID="SV.VISITDY" Value="140"/>
         <ItemData ItemOID="SV.SVSTDTC" Value="2014-07-02"/>
         <ItemData ItemOID="SV.SVENDTC" Value="2014-07-02"/>
      </ItemGroupData>
      <ItemGroupData data:ItemGroupDataSeq="146" ItemGroupOID="SV">
         <ItemData ItemOID="SV.STUDYID" Value="CDISCPILOT01"/>
         <ItemData ItemOID="SV.DOMAIN" Value="SV"/>
         <ItemData ItemOID="SV.USUBJID" Value="01-701-1130"/>
         <ItemData ItemOID="SV.VISITNUM" Value="11.1"/>
         <ItemData ItemOID="SV.VISIT" Value="WEEK 22 (T)"/>
         <ItemData ItemOID="SV.VISITDY" Value="154"/>
         <ItemData ItemOID="SV.SVSTDTC" Value="2014-07-19"/>
         <ItemData ItemOID="SV.SVENDTC" Value="2014-07-19"/>
      </ItemGroupData>
      <ItemGroupData data:ItemGroupDataSeq="147" ItemGroupOID="SV">
         <ItemData ItemOID="SV.STUDYID" Value="CDISCPILOT01"/>
         <ItemData ItemOID="SV.DOMAIN" Value="SV"/>
         <ItemData ItemOID="SV.USUBJID" Value="01-701-1130"/>
         <ItemData ItemOID="SV.VISITNUM" Value="12"/>
         <ItemData ItemOID="SV.VISIT" Value="WEEK 24"/>
         <ItemData ItemOID="SV.VISITDY" Value="168"/>
         <ItemData ItemOID="SV.SVSTDTC" Value="2014-08-02"/>
         <ItemData ItemOID="SV.SVENDTC" Value="2014-08-02"/>
      </ItemGroupData>
      <ItemGroupData data:ItemGroupDataSeq="148" ItemGroupOID="SV">
         <ItemData ItemOID="SV.STUDYID" Value="CDISCPILOT01"/>
         <ItemData ItemOID="SV.DOMAIN" Value="SV"/>
         <ItemData ItemOID="SV.USUBJID" Value="01-701-1130"/>
         <ItemData ItemOID="SV.VISITNUM" Value="13"/>
         <ItemData ItemOID="SV.VISIT" Value="WEEK 26"/>
         <ItemData ItemOID="SV.VISITDY" Value="182"/>
         <ItemData ItemOID="SV.SVSTDTC" Value="2014-08-16"/>
         <ItemData ItemOID="SV.SVENDTC" Value="2014-08-16"/>
      </ItemGroupData>
      <ItemGroupData data:ItemGroupDataSeq="149" ItemGroupOID="SV">
         <ItemData ItemOID="SV.STUDYID" Value="CDISCPILOT01"/>
         <ItemData ItemOID="SV.DOMAIN" Value="SV"/>
         <ItemData ItemOID="SV.USUBJID" Value="01-701-1133"/>
         <ItemData ItemOID="SV.VISITNUM" Value="1"/>
         <ItemData ItemOID="SV.VISIT" Value="SCREENING 1"/>
         <ItemData ItemOID="SV.VISITDY" Value="-7"/>
         <ItemData ItemOID="SV.SVSTDTC" Value="2012-10-23"/>
         <ItemData ItemOID="SV.SVENDTC" Value="2012-10-23"/>
      </ItemGroupData>
      <ItemGroupData data:ItemGroupDataSeq="150" ItemGroupOID="SV">
         <ItemData ItemOID="SV.STUDYID" Value="CDISCPILOT01"/>
         <ItemData ItemOID="SV.DOMAIN" Value="SV"/>
         <ItemData ItemOID="SV.USUBJID" Value="01-701-1133"/>
         <ItemData ItemOID="SV.VISITNUM" Value="2"/>
         <ItemData ItemOID="SV.VISIT" Value="SCREENING 2"/>
         <ItemData ItemOID="SV.VISITDY" Value="-1"/>
         <ItemData ItemOID="SV.SVSTDTC" Value="2012-10-26"/>
         <ItemData ItemOID="SV.SVENDTC" Value="2012-10-26"/>
      </ItemGroupData>
      <ItemGroupData data:ItemGroupDataSeq="151" ItemGroupOID="SV">
         <ItemData ItemOID="SV.STUDYID" Value="CDISCPILOT01"/>
         <ItemData ItemOID="SV.DOMAIN" Value="SV"/>
         <ItemData ItemOID="SV.USUBJID" Value="01-701-1133"/>
         <ItemData ItemOID="SV.VISITNUM" Value="3"/>
         <ItemData ItemOID="SV.VISIT" Value="BASELINE"/>
         <ItemData ItemOID="SV.VISITDY" Value="1"/>
         <ItemData ItemOID="SV.SVSTDTC" Value="2012-10-28"/>
         <ItemData ItemOID="SV.SVENDTC" Value="2012-10-28"/>
      </ItemGroupData>
      <ItemGroupData data:ItemGroupDataSeq="152" ItemGroupOID="SV">
         <ItemData ItemOID="SV.STUDYID" Value="CDISCPILOT01"/>
         <ItemData ItemOID="SV.DOMAIN" Value="SV"/>
         <ItemData ItemOID="SV.USUBJID" Value="01-701-1133"/>
         <ItemData ItemOID="SV.VISITNUM" Value="3.5"/>
         <ItemData ItemOID="SV.VISIT" Value="AMBUL ECG PLACEMENT"/>
         <ItemData ItemOID="SV.VISITDY" Value="13"/>
         <ItemData ItemOID="SV.SVSTDTC" Value="2012-11-11"/>
         <ItemData ItemOID="SV.SVENDTC" Value="2012-11-11"/>
      </ItemGroupData>
      <ItemGroupData data:ItemGroupDataSeq="153" ItemGroupOID="SV">
         <ItemData ItemOID="SV.STUDYID" Value="CDISCPILOT01"/>
         <ItemData ItemOID="SV.DOMAIN" Value="SV"/>
         <ItemData ItemOID="SV.USUBJID" Value="01-701-1133"/>
         <ItemData ItemOID="SV.VISITNUM" Value="4"/>
         <ItemData ItemOID="SV.VISIT" Value="WEEK 2"/>
         <ItemData ItemOID="SV.VISITDY" Value="14"/>
         <ItemData ItemOID="SV.SVSTDTC" Value="2012-11-12"/>
         <ItemData ItemOID="SV.SVENDTC" Value="2012-11-12"/>
      </ItemGroupData>
      <ItemGroupData data:ItemGroupDataSeq="154" ItemGroupOID="SV">
         <ItemData ItemOID="SV.STUDYID" Value="CDISCPILOT01"/>
         <ItemData ItemOID="SV.DOMAIN" Value="SV"/>
         <ItemData ItemOID="SV.USUBJID" Value="01-701-1133"/>
         <ItemData ItemOID="SV.VISITNUM" Value="5"/>
         <ItemData ItemOID="SV.VISIT" Value="WEEK 4"/>
         <ItemData ItemOID="SV.VISITDY" Value="28"/>
         <ItemData ItemOID="SV.SVSTDTC" Value="2012-11-26"/>
         <ItemData ItemOID="SV.SVENDTC" Value="2012-11-26"/>
      </ItemGroupData>
      <ItemGroupData data:ItemGroupDataSeq="155" ItemGroupOID="SV">
         <ItemData ItemOID="SV.STUDYID" Value="CDISCPILOT01"/>
         <ItemData ItemOID="SV.DOMAIN" Value="SV"/>
         <ItemData ItemOID="SV.USUBJID" Value="01-701-1133"/>
         <ItemData ItemOID="SV.VISITNUM" Value="6"/>
         <ItemData ItemOID="SV.VISIT" Value="AMBUL ECG REMOVAL"/>
         <ItemData ItemOID="SV.VISITDY" Value="30"/>
         <ItemData ItemOID="SV.SVSTDTC" Value="2012-11-28"/>
         <ItemData ItemOID="SV.SVENDTC" Value="2012-11-28"/>
      </ItemGroupData>
      <ItemGroupData data:ItemGroupDataSeq="156" ItemGroupOID="SV">
         <ItemData ItemOID="SV.STUDYID" Value="CDISCPILOT01"/>
         <ItemData ItemOID="SV.DOMAIN" Value="SV"/>
         <ItemData ItemOID="SV.USUBJID" Value="01-701-1133"/>
         <ItemData ItemOID="SV.VISITNUM" Value="7"/>
         <ItemData ItemOID="SV.VISIT" Value="WEEK 6"/>
         <ItemData ItemOID="SV.VISITDY" Value="42"/>
         <ItemData ItemOID="SV.SVSTDTC" Value="2012-12-11"/>
         <ItemData ItemOID="SV.SVENDTC" Value="2012-12-11"/>
      </ItemGroupData>
      <ItemGroupData data:ItemGroupDataSeq="157" ItemGroupOID="SV">
         <ItemData ItemOID="SV.STUDYID" Value="CDISCPILOT01"/>
         <ItemData ItemOID="SV.DOMAIN" Value="SV"/>
         <ItemData ItemOID="SV.USUBJID" Value="01-701-1133"/>
         <ItemData ItemOID="SV.VISITNUM" Value="8"/>
         <ItemData ItemOID="SV.VISIT" Value="WEEK 8"/>
         <ItemData ItemOID="SV.VISITDY" Value="56"/>
         <ItemData ItemOID="SV.SVSTDTC" Value="2012-12-24"/>
         <ItemData ItemOID="SV.SVENDTC" Value="2012-12-24"/>
      </ItemGroupData>
      <ItemGroupData data:ItemGroupDataSeq="158" ItemGroupOID="SV">
         <ItemData ItemOID="SV.STUDYID" Value="CDISCPILOT01"/>
         <ItemData ItemOID="SV.DOMAIN" Value="SV"/>
         <ItemData ItemOID="SV.USUBJID" Value="01-701-1133"/>
         <ItemData ItemOID="SV.VISITNUM" Value="8.1"/>
         <ItemData ItemOID="SV.VISIT" Value="WEEK 10 (T)"/>
         <ItemData ItemOID="SV.VISITDY" Value="70"/>
         <ItemData ItemOID="SV.SVSTDTC" Value="2013-01-07"/>
         <ItemData ItemOID="SV.SVENDTC" Value="2013-01-07"/>
      </ItemGroupData>
      <ItemGroupData data:ItemGroupDataSeq="159" ItemGroupOID="SV">
         <ItemData ItemOID="SV.STUDYID" Value="CDISCPILOT01"/>
         <ItemData ItemOID="SV.DOMAIN" Value="SV"/>
         <ItemData ItemOID="SV.USUBJID" Value="01-701-1133"/>
         <ItemData ItemOID="SV.VISITNUM" Value="9"/>
         <ItemData ItemOID="SV.VISIT" Value="WEEK 12"/>
         <ItemData ItemOID="SV.VISITDY" Value="84"/>
         <ItemData ItemOID="SV.SVSTDTC" Value="2013-01-22"/>
         <ItemData ItemOID="SV.SVENDTC" Value="2013-01-22"/>
      </ItemGroupData>
      <ItemGroupData data:ItemGroupDataSeq="160" ItemGroupOID="SV">
         <ItemData ItemOID="SV.STUDYID" Value="CDISCPILOT01"/>
         <ItemData ItemOID="SV.DOMAIN" Value="SV"/>
         <ItemData ItemOID="SV.USUBJID" Value="01-701-1133"/>
         <ItemData ItemOID="SV.VISITNUM" Value="9.1"/>
         <ItemData ItemOID="SV.VISIT" Value="WEEK 14 (T)"/>
         <ItemData ItemOID="SV.VISITDY" Value="98"/>
         <ItemData ItemOID="SV.SVSTDTC" Value="2013-02-04"/>
         <ItemData ItemOID="SV.SVENDTC" Value="2013-02-04"/>
      </ItemGroupData>
      <ItemGroupData data:ItemGroupDataSeq="161" ItemGroupOID="SV">
         <ItemData ItemOID="SV.STUDYID" Value="CDISCPILOT01"/>
         <ItemData ItemOID="SV.DOMAIN" Value="SV"/>
         <ItemData ItemOID="SV.USUBJID" Value="01-701-1133"/>
         <ItemData ItemOID="SV.VISITNUM" Value="10"/>
         <ItemData ItemOID="SV.VISIT" Value="WEEK 16"/>
         <ItemData ItemOID="SV.VISITDY" Value="112"/>
         <ItemData ItemOID="SV.SVSTDTC" Value="2013-02-18"/>
         <ItemData ItemOID="SV.SVENDTC" Value="2013-02-18"/>
      </ItemGroupData>
      <ItemGroupData data:ItemGroupDataSeq="162" ItemGroupOID="SV">
         <ItemData ItemOID="SV.STUDYID" Value="CDISCPILOT01"/>
         <ItemData ItemOID="SV.DOMAIN" Value="SV"/>
         <ItemData ItemOID="SV.USUBJID" Value="01-701-1133"/>
         <ItemData ItemOID="SV.VISITNUM" Value="10.1"/>
         <ItemData ItemOID="SV.VISIT" Value="WEEK 18 (T)"/>
         <ItemData ItemOID="SV.VISITDY" Value="126"/>
         <ItemData ItemOID="SV.SVSTDTC" Value="2013-03-04"/>
         <ItemData ItemOID="SV.SVENDTC" Value="2013-03-04"/>
      </ItemGroupData>
      <ItemGroupData data:ItemGroupDataSeq="163" ItemGroupOID="SV">
         <ItemData ItemOID="SV.STUDYID" Value="CDISCPILOT01"/>
         <ItemData ItemOID="SV.DOMAIN" Value="SV"/>
         <ItemData ItemOID="SV.USUBJID" Value="01-701-1133"/>
         <ItemData ItemOID="SV.VISITNUM" Value="11"/>
         <ItemData ItemOID="SV.VISIT" Value="WEEK 20"/>
         <ItemData ItemOID="SV.VISITDY" Value="140"/>
         <ItemData ItemOID="SV.SVSTDTC" Value="2013-03-18"/>
         <ItemData ItemOID="SV.SVENDTC" Value="2013-03-18"/>
      </ItemGroupData>
      <ItemGroupData data:ItemGroupDataSeq="164" ItemGroupOID="SV">
         <ItemData ItemOID="SV.STUDYID" Value="CDISCPILOT01"/>
         <ItemData ItemOID="SV.DOMAIN" Value="SV"/>
         <ItemData ItemOID="SV.USUBJID" Value="01-701-1133"/>
         <ItemData ItemOID="SV.VISITNUM" Value="11.1"/>
         <ItemData ItemOID="SV.VISIT" Value="WEEK 22 (T)"/>
         <ItemData ItemOID="SV.VISITDY" Value="154"/>
         <ItemData ItemOID="SV.SVSTDTC" Value="2013-04-01"/>
         <ItemData ItemOID="SV.SVENDTC" Value="2013-04-01"/>
      </ItemGroupData>
      <ItemGroupData data:ItemGroupDataSeq="165" ItemGroupOID="SV">
         <ItemData ItemOID="SV.STUDYID" Value="CDISCPILOT01"/>
         <ItemData ItemOID="SV.DOMAIN" Value="SV"/>
         <ItemData ItemOID="SV.USUBJID" Value="01-701-1133"/>
         <ItemData ItemOID="SV.VISITNUM" Value="12"/>
         <ItemData ItemOID="SV.VISIT" Value="WEEK 24"/>
         <ItemData ItemOID="SV.VISITDY" Value="168"/>
         <ItemData ItemOID="SV.SVSTDTC" Value="2013-04-18"/>
         <ItemData ItemOID="SV.SVENDTC" Value="2013-04-18"/>
      </ItemGroupData>
      <ItemGroupData data:ItemGroupDataSeq="166" ItemGroupOID="SV">
         <ItemData ItemOID="SV.STUDYID" Value="CDISCPILOT01"/>
         <ItemData ItemOID="SV.DOMAIN" Value="SV"/>
         <ItemData ItemOID="SV.USUBJID" Value="01-701-1133"/>
         <ItemData ItemOID="SV.VISITNUM" Value="13"/>
         <ItemData ItemOID="SV.VISIT" Value="WEEK 26"/>
         <ItemData ItemOID="SV.VISITDY" Value="182"/>
         <ItemData ItemOID="SV.SVSTDTC" Value="2013-04-29"/>
         <ItemData ItemOID="SV.SVENDTC" Value="2013-04-29"/>
      </ItemGroupData>
      <ItemGroupData data:ItemGroupDataSeq="167" ItemGroupOID="SV">
         <ItemData ItemOID="SV.STUDYID" Value="CDISCPILOT01"/>
         <ItemData ItemOID="SV.DOMAIN" Value="SV"/>
         <ItemData ItemOID="SV.USUBJID" Value="01-701-1145"/>
         <ItemData ItemOID="SV.VISITNUM" Value="1"/>
         <ItemData ItemOID="SV.VISIT" Value="SCREENING 1"/>
         <ItemData ItemOID="SV.VISITDY" Value="-7"/>
         <ItemData ItemOID="SV.SVSTDTC" Value="2013-09-05"/>
         <ItemData ItemOID="SV.SVENDTC" Value="2013-09-05"/>
      </ItemGroupData>
      <ItemGroupData data:ItemGroupDataSeq="168" ItemGroupOID="SV">
         <ItemData ItemOID="SV.STUDYID" Value="CDISCPILOT01"/>
         <ItemData ItemOID="SV.DOMAIN" Value="SV"/>
         <ItemData ItemOID="SV.USUBJID" Value="01-701-1146"/>
         <ItemData ItemOID="SV.VISITNUM" Value="1"/>
         <ItemData ItemOID="SV.VISIT" Value="SCREENING 1"/>
         <ItemData ItemOID="SV.VISITDY" Value="-7"/>
         <ItemData ItemOID="SV.SVSTDTC" Value="2013-05-07"/>
         <ItemData ItemOID="SV.SVENDTC" Value="2013-05-07"/>
      </ItemGroupData>
      <ItemGroupData data:ItemGroupDataSeq="169" ItemGroupOID="SV">
         <ItemData ItemOID="SV.STUDYID" Value="CDISCPILOT01"/>
         <ItemData ItemOID="SV.DOMAIN" Value="SV"/>
         <ItemData ItemOID="SV.USUBJID" Value="01-701-1146"/>
         <ItemData ItemOID="SV.VISITNUM" Value="2"/>
         <ItemData ItemOID="SV.VISIT" Value="SCREENING 2"/>
         <ItemData ItemOID="SV.VISITDY" Value="-1"/>
         <ItemData ItemOID="SV.SVSTDTC" Value="2013-05-18"/>
         <ItemData ItemOID="SV.SVENDTC" Value="2013-05-18"/>
      </ItemGroupData>
      <ItemGroupData data:ItemGroupDataSeq="170" ItemGroupOID="SV">
         <ItemData ItemOID="SV.STUDYID" Value="CDISCPILOT01"/>
         <ItemData ItemOID="SV.DOMAIN" Value="SV"/>
         <ItemData ItemOID="SV.USUBJID" Value="01-701-1146"/>
         <ItemData ItemOID="SV.VISITNUM" Value="3"/>
         <ItemData ItemOID="SV.VISIT" Value="BASELINE"/>
         <ItemData ItemOID="SV.VISITDY" Value="1"/>
         <ItemData ItemOID="SV.SVSTDTC" Value="2013-05-20"/>
         <ItemData ItemOID="SV.SVENDTC" Value="2013-05-20"/>
      </ItemGroupData>
      <ItemGroupData data:ItemGroupDataSeq="171" ItemGroupOID="SV">
         <ItemData ItemOID="SV.STUDYID" Value="CDISCPILOT01"/>
         <ItemData ItemOID="SV.DOMAIN" Value="SV"/>
         <ItemData ItemOID="SV.USUBJID" Value="01-701-1146"/>
         <ItemData ItemOID="SV.VISITNUM" Value="3.5"/>
         <ItemData ItemOID="SV.VISIT" Value="AMBUL ECG PLACEMENT"/>
         <ItemData ItemOID="SV.VISITDY" Value="13"/>
         <ItemData ItemOID="SV.SVSTDTC" Value="2013-06-02"/>
         <ItemData ItemOID="SV.SVENDTC" Value="2013-06-02"/>
      </ItemGroupData>
      <ItemGroupData data:ItemGroupDataSeq="172" ItemGroupOID="SV">
         <ItemData ItemOID="SV.STUDYID" Value="CDISCPILOT01"/>
         <ItemData ItemOID="SV.DOMAIN" Value="SV"/>
         <ItemData ItemOID="SV.USUBJID" Value="01-701-1146"/>
         <ItemData ItemOID="SV.VISITNUM" Value="4"/>
         <ItemData ItemOID="SV.VISIT" Value="WEEK 2"/>
         <ItemData ItemOID="SV.VISITDY" Value="14"/>
         <ItemData ItemOID="SV.SVSTDTC" Value="2013-06-03"/>
         <ItemData ItemOID="SV.SVENDTC" Value="2013-06-03"/>
      </ItemGroupData>
      <ItemGroupData data:ItemGroupDataSeq="173" ItemGroupOID="SV">
         <ItemData ItemOID="SV.STUDYID" Value="CDISCPILOT01"/>
         <ItemData ItemOID="SV.DOMAIN" Value="SV"/>
         <ItemData ItemOID="SV.USUBJID" Value="01-701-1146"/>
         <ItemData ItemOID="SV.VISITNUM" Value="5"/>
         <ItemData ItemOID="SV.VISIT" Value="WEEK 4"/>
         <ItemData ItemOID="SV.VISITDY" Value="28"/>
         <ItemData ItemOID="SV.SVSTDTC" Value="2013-06-16"/>
         <ItemData ItemOID="SV.SVENDTC" Value="2013-06-16"/>
      </ItemGroupData>
      <ItemGroupData data:ItemGroupDataSeq="174" ItemGroupOID="SV">
         <ItemData ItemOID="SV.STUDYID" Value="CDISCPILOT01"/>
         <ItemData ItemOID="SV.DOMAIN" Value="SV"/>
         <ItemData ItemOID="SV.USUBJID" Value="01-701-1146"/>
         <ItemData ItemOID="SV.VISITNUM" Value="6"/>
         <ItemData ItemOID="SV.VISIT" Value="AMBUL ECG REMOVAL"/>
         <ItemData ItemOID="SV.VISITDY" Value="30"/>
         <ItemData ItemOID="SV.SVSTDTC" Value="2013-06-18"/>
         <ItemData ItemOID="SV.SVENDTC" Value="2013-06-18"/>
      </ItemGroupData>
      <ItemGroupData data:ItemGroupDataSeq="175" ItemGroupOID="SV">
         <ItemData ItemOID="SV.STUDYID" Value="CDISCPILOT01"/>
         <ItemData ItemOID="SV.DOMAIN" Value="SV"/>
         <ItemData ItemOID="SV.USUBJID" Value="01-701-1146"/>
         <ItemData ItemOID="SV.VISITNUM" Value="7"/>
         <ItemData ItemOID="SV.VISIT" Value="WEEK 6"/>
         <ItemData ItemOID="SV.VISITDY" Value="42"/>
         <ItemData ItemOID="SV.SVSTDTC" Value="2013-06-30"/>
         <ItemData ItemOID="SV.SVENDTC" Value="2013-06-30"/>
      </ItemGroupData>
      <ItemGroupData data:ItemGroupDataSeq="176" ItemGroupOID="SV">
         <ItemData ItemOID="SV.STUDYID" Value="CDISCPILOT01"/>
         <ItemData ItemOID="SV.DOMAIN" Value="SV"/>
         <ItemData ItemOID="SV.USUBJID" Value="01-701-1146"/>
         <ItemData ItemOID="SV.VISITNUM" Value="101"/>
         <ItemData ItemOID="SV.VISIT" Value="AE FOLLOW-UP"/>
         <ItemData ItemOID="SV.SVSTDTC" Value="2013-07-15"/>
         <ItemData ItemOID="SV.SVENDTC" Value="2013-07-15"/>
      </ItemGroupData>
      <ItemGroupData data:ItemGroupDataSeq="177" ItemGroupOID="SV">
         <ItemData ItemOID="SV.STUDYID" Value="CDISCPILOT01"/>
         <ItemData ItemOID="SV.DOMAIN" Value="SV"/>
         <ItemData ItemOID="SV.USUBJID" Value="01-701-1148"/>
         <ItemData ItemOID="SV.VISITNUM" Value="1"/>
         <ItemData ItemOID="SV.VISIT" Value="SCREENING 1"/>
         <ItemData ItemOID="SV.VISITDY" Value="-7"/>
         <ItemData ItemOID="SV.SVSTDTC" Value="2013-08-14"/>
         <ItemData ItemOID="SV.SVENDTC" Value="2013-08-14"/>
      </ItemGroupData>
      <ItemGroupData data:ItemGroupDataSeq="178" ItemGroupOID="SV">
         <ItemData ItemOID="SV.STUDYID" Value="CDISCPILOT01"/>
         <ItemData ItemOID="SV.DOMAIN" Value="SV"/>
         <ItemData ItemOID="SV.USUBJID" Value="01-701-1148"/>
         <ItemData ItemOID="SV.VISITNUM" Value="2"/>
         <ItemData ItemOID="SV.VISIT" Value="SCREENING 2"/>
         <ItemData ItemOID="SV.VISITDY" Value="-1"/>
         <ItemData ItemOID="SV.SVSTDTC" Value="2013-08-21"/>
         <ItemData ItemOID="SV.SVENDTC" Value="2013-08-21"/>
      </ItemGroupData>
      <ItemGroupData data:ItemGroupDataSeq="179" ItemGroupOID="SV">
         <ItemData ItemOID="SV.STUDYID" Value="CDISCPILOT01"/>
         <ItemData ItemOID="SV.DOMAIN" Value="SV"/>
         <ItemData ItemOID="SV.USUBJID" Value="01-701-1148"/>
         <ItemData ItemOID="SV.VISITNUM" Value="3"/>
         <ItemData ItemOID="SV.VISIT" Value="BASELINE"/>
         <ItemData ItemOID="SV.VISITDY" Value="1"/>
         <ItemData ItemOID="SV.SVSTDTC" Value="2013-08-23"/>
         <ItemData ItemOID="SV.SVENDTC" Value="2013-08-23"/>
      </ItemGroupData>
      <ItemGroupData data:ItemGroupDataSeq="180" ItemGroupOID="SV">
         <ItemData ItemOID="SV.STUDYID" Value="CDISCPILOT01"/>
         <ItemData ItemOID="SV.DOMAIN" Value="SV"/>
         <ItemData ItemOID="SV.USUBJID" Value="01-701-1148"/>
         <ItemData ItemOID="SV.VISITNUM" Value="3.5"/>
         <ItemData ItemOID="SV.VISIT" Value="AMBUL ECG PLACEMENT"/>
         <ItemData ItemOID="SV.VISITDY" Value="13"/>
         <ItemData ItemOID="SV.SVSTDTC" Value="2013-09-04"/>
         <ItemData ItemOID="SV.SVENDTC" Value="2013-09-04"/>
      </ItemGroupData>
      <ItemGroupData data:ItemGroupDataSeq="181" ItemGroupOID="SV">
         <ItemData ItemOID="SV.STUDYID" Value="CDISCPILOT01"/>
         <ItemData ItemOID="SV.DOMAIN" Value="SV"/>
         <ItemData ItemOID="SV.USUBJID" Value="01-701-1148"/>
         <ItemData ItemOID="SV.VISITNUM" Value="4"/>
         <ItemData ItemOID="SV.VISIT" Value="WEEK 2"/>
         <ItemData ItemOID="SV.VISITDY" Value="14"/>
         <ItemData ItemOID="SV.SVSTDTC" Value="2013-09-05"/>
         <ItemData ItemOID="SV.SVENDTC" Value="2013-09-05"/>
      </ItemGroupData>
      <ItemGroupData data:ItemGroupDataSeq="182" ItemGroupOID="SV">
         <ItemData ItemOID="SV.STUDYID" Value="CDISCPILOT01"/>
         <ItemData ItemOID="SV.DOMAIN" Value="SV"/>
         <ItemData ItemOID="SV.USUBJID" Value="01-701-1148"/>
         <ItemData ItemOID="SV.VISITNUM" Value="5"/>
         <ItemData ItemOID="SV.VISIT" Value="WEEK 4"/>
         <ItemData ItemOID="SV.VISITDY" Value="28"/>
         <ItemData ItemOID="SV.SVSTDTC" Value="2013-09-19"/>
         <ItemData ItemOID="SV.SVENDTC" Value="2013-09-19"/>
      </ItemGroupData>
      <ItemGroupData data:ItemGroupDataSeq="183" ItemGroupOID="SV">
         <ItemData ItemOID="SV.STUDYID" Value="CDISCPILOT01"/>
         <ItemData ItemOID="SV.DOMAIN" Value="SV"/>
         <ItemData ItemOID="SV.USUBJID" Value="01-701-1148"/>
         <ItemData ItemOID="SV.VISITNUM" Value="6"/>
         <ItemData ItemOID="SV.VISIT" Value="AMBUL ECG REMOVAL"/>
         <ItemData ItemOID="SV.VISITDY" Value="30"/>
         <ItemData ItemOID="SV.SVSTDTC" Value="2013-09-21"/>
         <ItemData ItemOID="SV.SVENDTC" Value="2013-09-21"/>
      </ItemGroupData>
      <ItemGroupData data:ItemGroupDataSeq="184" ItemGroupOID="SV">
         <ItemData ItemOID="SV.STUDYID" Value="CDISCPILOT01"/>
         <ItemData ItemOID="SV.DOMAIN" Value="SV"/>
         <ItemData ItemOID="SV.USUBJID" Value="01-701-1148"/>
         <ItemData ItemOID="SV.VISITNUM" Value="7"/>
         <ItemData ItemOID="SV.VISIT" Value="WEEK 6"/>
         <ItemData ItemOID="SV.VISITDY" Value="42"/>
         <ItemData ItemOID="SV.SVSTDTC" Value="2013-10-03"/>
         <ItemData ItemOID="SV.SVENDTC" Value="2013-10-03"/>
      </ItemGroupData>
      <ItemGroupData data:ItemGroupDataSeq="185" ItemGroupOID="SV">
         <ItemData ItemOID="SV.STUDYID" Value="CDISCPILOT01"/>
         <ItemData ItemOID="SV.DOMAIN" Value="SV"/>
         <ItemData ItemOID="SV.USUBJID" Value="01-701-1148"/>
         <ItemData ItemOID="SV.VISITNUM" Value="8"/>
         <ItemData ItemOID="SV.VISIT" Value="WEEK 8"/>
         <ItemData ItemOID="SV.VISITDY" Value="56"/>
         <ItemData ItemOID="SV.SVSTDTC" Value="2013-10-18"/>
         <ItemData ItemOID="SV.SVENDTC" Value="2013-10-18"/>
      </ItemGroupData>
      <ItemGroupData data:ItemGroupDataSeq="186" ItemGroupOID="SV">
         <ItemData ItemOID="SV.STUDYID" Value="CDISCPILOT01"/>
         <ItemData ItemOID="SV.DOMAIN" Value="SV"/>
         <ItemData ItemOID="SV.USUBJID" Value="01-701-1148"/>
         <ItemData ItemOID="SV.VISITNUM" Value="8.1"/>
         <ItemData ItemOID="SV.VISIT" Value="WEEK 10 (T)"/>
         <ItemData ItemOID="SV.VISITDY" Value="70"/>
         <ItemData ItemOID="SV.SVSTDTC" Value="2013-11-01"/>
         <ItemData ItemOID="SV.SVENDTC" Value="2013-11-01"/>
      </ItemGroupData>
      <ItemGroupData data:ItemGroupDataSeq="187" ItemGroupOID="SV">
         <ItemData ItemOID="SV.STUDYID" Value="CDISCPILOT01"/>
         <ItemData ItemOID="SV.DOMAIN" Value="SV"/>
         <ItemData ItemOID="SV.USUBJID" Value="01-701-1148"/>
         <ItemData ItemOID="SV.VISITNUM" Value="9"/>
         <ItemData ItemOID="SV.VISIT" Value="WEEK 12"/>
         <ItemData ItemOID="SV.VISITDY" Value="84"/>
         <ItemData ItemOID="SV.SVSTDTC" Value="2013-11-17"/>
         <ItemData ItemOID="SV.SVENDTC" Value="2013-11-17"/>
      </ItemGroupData>
      <ItemGroupData data:ItemGroupDataSeq="188" ItemGroupOID="SV">
         <ItemData ItemOID="SV.STUDYID" Value="CDISCPILOT01"/>
         <ItemData ItemOID="SV.DOMAIN" Value="SV"/>
         <ItemData ItemOID="SV.USUBJID" Value="01-701-1148"/>
         <ItemData ItemOID="SV.VISITNUM" Value="9.1"/>
         <ItemData ItemOID="SV.VISIT" Value="WEEK 14 (T)"/>
         <ItemData ItemOID="SV.VISITDY" Value="98"/>
         <ItemData ItemOID="SV.SVSTDTC" Value="2013-11-30"/>
         <ItemData ItemOID="SV.SVENDTC" Value="2013-11-30"/>
      </ItemGroupData>
      <ItemGroupData data:ItemGroupDataSeq="189" ItemGroupOID="SV">
         <ItemData ItemOID="SV.STUDYID" Value="CDISCPILOT01"/>
         <ItemData ItemOID="SV.DOMAIN" Value="SV"/>
         <ItemData ItemOID="SV.USUBJID" Value="01-701-1148"/>
         <ItemData ItemOID="SV.VISITNUM" Value="10"/>
         <ItemData ItemOID="SV.VISIT" Value="WEEK 16"/>
         <ItemData ItemOID="SV.VISITDY" Value="112"/>
         <ItemData ItemOID="SV.SVSTDTC" Value="2013-12-13"/>
         <ItemData ItemOID="SV.SVENDTC" Value="2013-12-13"/>
      </ItemGroupData>
      <ItemGroupData data:ItemGroupDataSeq="190" ItemGroupOID="SV">
         <ItemData ItemOID="SV.STUDYID" Value="CDISCPILOT01"/>
         <ItemData ItemOID="SV.DOMAIN" Value="SV"/>
         <ItemData ItemOID="SV.USUBJID" Value="01-701-1148"/>
         <ItemData ItemOID="SV.VISITNUM" Value="10.1"/>
         <ItemData ItemOID="SV.VISIT" Value="WEEK 18 (T)"/>
         <ItemData ItemOID="SV.VISITDY" Value="126"/>
         <ItemData ItemOID="SV.SVSTDTC" Value="2013-12-27"/>
         <ItemData ItemOID="SV.SVENDTC" Value="2013-12-27"/>
      </ItemGroupData>
      <ItemGroupData data:ItemGroupDataSeq="191" ItemGroupOID="SV">
         <ItemData ItemOID="SV.STUDYID" Value="CDISCPILOT01"/>
         <ItemData ItemOID="SV.DOMAIN" Value="SV"/>
         <ItemData ItemOID="SV.USUBJID" Value="01-701-1148"/>
         <ItemData ItemOID="SV.VISITNUM" Value="11"/>
         <ItemData ItemOID="SV.VISIT" Value="WEEK 20"/>
         <ItemData ItemOID="SV.VISITDY" Value="140"/>
         <ItemData ItemOID="SV.SVSTDTC" Value="2014-01-10"/>
         <ItemData ItemOID="SV.SVENDTC" Value="2014-01-10"/>
      </ItemGroupData>
      <ItemGroupData data:ItemGroupDataSeq="192" ItemGroupOID="SV">
         <ItemData ItemOID="SV.STUDYID" Value="CDISCPILOT01"/>
         <ItemData ItemOID="SV.DOMAIN" Value="SV"/>
         <ItemData ItemOID="SV.USUBJID" Value="01-701-1148"/>
         <ItemData ItemOID="SV.VISITNUM" Value="11.1"/>
         <ItemData ItemOID="SV.VISIT" Value="WEEK 22 (T)"/>
         <ItemData ItemOID="SV.VISITDY" Value="154"/>
         <ItemData ItemOID="SV.SVSTDTC" Value="2014-01-24"/>
         <ItemData ItemOID="SV.SVENDTC" Value="2014-01-24"/>
      </ItemGroupData>
      <ItemGroupData data:ItemGroupDataSeq="193" ItemGroupOID="SV">
         <ItemData ItemOID="SV.STUDYID" Value="CDISCPILOT01"/>
         <ItemData ItemOID="SV.DOMAIN" Value="SV"/>
         <ItemData ItemOID="SV.USUBJID" Value="01-701-1148"/>
         <ItemData ItemOID="SV.VISITNUM" Value="12"/>
         <ItemData ItemOID="SV.VISIT" Value="WEEK 24"/>
         <ItemData ItemOID="SV.VISITDY" Value="168"/>
         <ItemData ItemOID="SV.SVSTDTC" Value="2014-02-08"/>
         <ItemData ItemOID="SV.SVENDTC" Value="2014-02-08"/>
      </ItemGroupData>
      <ItemGroupData data:ItemGroupDataSeq="194" ItemGroupOID="SV">
         <ItemData ItemOID="SV.STUDYID" Value="CDISCPILOT01"/>
         <ItemData ItemOID="SV.DOMAIN" Value="SV"/>
         <ItemData ItemOID="SV.USUBJID" Value="01-701-1148"/>
         <ItemData ItemOID="SV.VISITNUM" Value="13"/>
         <ItemData ItemOID="SV.VISIT" Value="WEEK 26"/>
         <ItemData ItemOID="SV.VISITDY" Value="182"/>
         <ItemData ItemOID="SV.SVSTDTC" Value="2014-02-20"/>
         <ItemData ItemOID="SV.SVENDTC" Value="2014-02-20"/>
      </ItemGroupData>
      <ItemGroupData data:ItemGroupDataSeq="195" ItemGroupOID="SV">
         <ItemData ItemOID="SV.STUDYID" Value="CDISCPILOT01"/>
         <ItemData ItemOID="SV.DOMAIN" Value="SV"/>
         <ItemData ItemOID="SV.USUBJID" Value="01-701-1153"/>
         <ItemData ItemOID="SV.VISITNUM" Value="1"/>
         <ItemData ItemOID="SV.VISIT" Value="SCREENING 1"/>
         <ItemData ItemOID="SV.VISITDY" Value="-7"/>
         <ItemData ItemOID="SV.SVSTDTC" Value="2013-09-06"/>
         <ItemData ItemOID="SV.SVENDTC" Value="2013-09-06"/>
      </ItemGroupData>
      <ItemGroupData data:ItemGroupDataSeq="196" ItemGroupOID="SV">
         <ItemData ItemOID="SV.STUDYID" Value="CDISCPILOT01"/>
         <ItemData ItemOID="SV.DOMAIN" Value="SV"/>
         <ItemData ItemOID="SV.USUBJID" Value="01-701-1153"/>
         <ItemData ItemOID="SV.VISITNUM" Value="2"/>
         <ItemData ItemOID="SV.VISIT" Value="SCREENING 2"/>
         <ItemData ItemOID="SV.VISITDY" Value="-1"/>
         <ItemData ItemOID="SV.SVSTDTC" Value="2013-09-18"/>
         <ItemData ItemOID="SV.SVENDTC" Value="2013-09-18"/>
      </ItemGroupData>
      <ItemGroupData data:ItemGroupDataSeq="197" ItemGroupOID="SV">
         <ItemData ItemOID="SV.STUDYID" Value="CDISCPILOT01"/>
         <ItemData ItemOID="SV.DOMAIN" Value="SV"/>
         <ItemData ItemOID="SV.USUBJID" Value="01-701-1153"/>
         <ItemData ItemOID="SV.VISITNUM" Value="3"/>
         <ItemData ItemOID="SV.VISIT" Value="BASELINE"/>
         <ItemData ItemOID="SV.VISITDY" Value="1"/>
         <ItemData ItemOID="SV.SVSTDTC" Value="2013-09-23"/>
         <ItemData ItemOID="SV.SVENDTC" Value="2013-09-23"/>
      </ItemGroupData>
      <ItemGroupData data:ItemGroupDataSeq="198" ItemGroupOID="SV">
         <ItemData ItemOID="SV.STUDYID" Value="CDISCPILOT01"/>
         <ItemData ItemOID="SV.DOMAIN" Value="SV"/>
         <ItemData ItemOID="SV.USUBJID" Value="01-701-1153"/>
         <ItemData ItemOID="SV.VISITNUM" Value="3.5"/>
         <ItemData ItemOID="SV.VISIT" Value="AMBUL ECG PLACEMENT"/>
         <ItemData ItemOID="SV.VISITDY" Value="13"/>
         <ItemData ItemOID="SV.SVSTDTC" Value="2013-10-07"/>
         <ItemData ItemOID="SV.SVENDTC" Value="2013-10-07"/>
      </ItemGroupData>
      <ItemGroupData data:ItemGroupDataSeq="199" ItemGroupOID="SV">
         <ItemData ItemOID="SV.STUDYID" Value="CDISCPILOT01"/>
         <ItemData ItemOID="SV.DOMAIN" Value="SV"/>
         <ItemData ItemOID="SV.USUBJID" Value="01-701-1153"/>
         <ItemData ItemOID="SV.VISITNUM" Value="4"/>
         <ItemData ItemOID="SV.VISIT" Value="WEEK 2"/>
         <ItemData ItemOID="SV.VISITDY" Value="14"/>
         <ItemData ItemOID="SV.SVSTDTC" Value="2013-10-08"/>
         <ItemData ItemOID="SV.SVENDTC" Value="2013-10-08"/>
      </ItemGroupData>
      <ItemGroupData data:ItemGroupDataSeq="200" ItemGroupOID="SV">
         <ItemData ItemOID="SV.STUDYID" Value="CDISCPILOT01"/>
         <ItemData ItemOID="SV.DOMAIN" Value="SV"/>
         <ItemData ItemOID="SV.USUBJID" Value="01-701-1153"/>
         <ItemData ItemOID="SV.VISITNUM" Value="5"/>
         <ItemData ItemOID="SV.VISIT" Value="WEEK 4"/>
         <ItemData ItemOID="SV.VISITDY" Value="28"/>
         <ItemData ItemOID="SV.SVSTDTC" Value="2013-10-19"/>
         <ItemData ItemOID="SV.SVENDTC" Value="2013-10-19"/>
      </ItemGroupData>
      <ItemGroupData data:ItemGroupDataSeq="201" ItemGroupOID="SV">
         <ItemData ItemOID="SV.STUDYID" Value="CDISCPILOT01"/>
         <ItemData ItemOID="SV.DOMAIN" Value="SV"/>
         <ItemData ItemOID="SV.USUBJID" Value="01-701-1153"/>
         <ItemData ItemOID="SV.VISITNUM" Value="5.1"/>
         <ItemData ItemOID="SV.VISIT" Value="UNSCHEDULED 5.1"/>
         <ItemData ItemOID="SV.SVSTDTC" Value="2013-10-19"/>
         <ItemData ItemOID="SV.SVENDTC" Value="2013-10-19"/>
      </ItemGroupData>
      <ItemGroupData data:ItemGroupDataSeq="202" ItemGroupOID="SV">
         <ItemData ItemOID="SV.STUDYID" Value="CDISCPILOT01"/>
         <ItemData ItemOID="SV.DOMAIN" Value="SV"/>
         <ItemData ItemOID="SV.USUBJID" Value="01-701-1153"/>
         <ItemData ItemOID="SV.VISITNUM" Value="6"/>
         <ItemData ItemOID="SV.VISIT" Value="AMBUL ECG REMOVAL"/>
         <ItemData ItemOID="SV.VISITDY" Value="30"/>
         <ItemData ItemOID="SV.SVSTDTC" Value="2013-10-28"/>
         <ItemData ItemOID="SV.SVENDTC" Value="2013-10-28"/>
      </ItemGroupData>
      <ItemGroupData data:ItemGroupDataSeq="203" ItemGroupOID="SV">
         <ItemData ItemOID="SV.STUDYID" Value="CDISCPILOT01"/>
         <ItemData ItemOID="SV.DOMAIN" Value="SV"/>
         <ItemData ItemOID="SV.USUBJID" Value="01-701-1153"/>
         <ItemData ItemOID="SV.VISITNUM" Value="7"/>
         <ItemData ItemOID="SV.VISIT" Value="WEEK 6"/>
         <ItemData ItemOID="SV.VISITDY" Value="42"/>
         <ItemData ItemOID="SV.SVSTDTC" Value="2013-11-04"/>
         <ItemData ItemOID="SV.SVENDTC" Value="2013-11-04"/>
      </ItemGroupData>
      <ItemGroupData data:ItemGroupDataSeq="204" ItemGroupOID="SV">
         <ItemData ItemOID="SV.STUDYID" Value="CDISCPILOT01"/>
         <ItemData ItemOID="SV.DOMAIN" Value="SV"/>
         <ItemData ItemOID="SV.USUBJID" Value="01-701-1153"/>
         <ItemData ItemOID="SV.VISITNUM" Value="8"/>
         <ItemData ItemOID="SV.VISIT" Value="WEEK 8"/>
         <ItemData ItemOID="SV.VISITDY" Value="56"/>
         <ItemData ItemOID="SV.SVSTDTC" Value="2013-11-18"/>
         <ItemData ItemOID="SV.SVENDTC" Value="2013-11-18"/>
      </ItemGroupData>
      <ItemGroupData data:ItemGroupDataSeq="205" ItemGroupOID="SV">
         <ItemData ItemOID="SV.STUDYID" Value="CDISCPILOT01"/>
         <ItemData ItemOID="SV.DOMAIN" Value="SV"/>
         <ItemData ItemOID="SV.USUBJID" Value="01-701-1153"/>
         <ItemData ItemOID="SV.VISITNUM" Value="8.1"/>
         <ItemData ItemOID="SV.VISIT" Value="WEEK 10 (T)"/>
         <ItemData ItemOID="SV.VISITDY" Value="70"/>
         <ItemData ItemOID="SV.SVSTDTC" Value="2013-12-02"/>
         <ItemData ItemOID="SV.SVENDTC" Value="2013-12-02"/>
      </ItemGroupData>
      <ItemGroupData data:ItemGroupDataSeq="206" ItemGroupOID="SV">
         <ItemData ItemOID="SV.STUDYID" Value="CDISCPILOT01"/>
         <ItemData ItemOID="SV.DOMAIN" Value="SV"/>
         <ItemData ItemOID="SV.USUBJID" Value="01-701-1153"/>
         <ItemData ItemOID="SV.VISITNUM" Value="9"/>
         <ItemData ItemOID="SV.VISIT" Value="WEEK 12"/>
         <ItemData ItemOID="SV.VISITDY" Value="84"/>
         <ItemData ItemOID="SV.SVSTDTC" Value="2013-12-16"/>
         <ItemData ItemOID="SV.SVENDTC" Value="2013-12-16"/>
      </ItemGroupData>
      <ItemGroupData data:ItemGroupDataSeq="207" ItemGroupOID="SV">
         <ItemData ItemOID="SV.STUDYID" Value="CDISCPILOT01"/>
         <ItemData ItemOID="SV.DOMAIN" Value="SV"/>
         <ItemData ItemOID="SV.USUBJID" Value="01-701-1153"/>
         <ItemData ItemOID="SV.VISITNUM" Value="9.1"/>
         <ItemData ItemOID="SV.VISIT" Value="WEEK 14 (T)"/>
         <ItemData ItemOID="SV.VISITDY" Value="98"/>
         <ItemData ItemOID="SV.SVSTDTC" Value="2013-12-30"/>
         <ItemData ItemOID="SV.SVENDTC" Value="2013-12-30"/>
      </ItemGroupData>
      <ItemGroupData data:ItemGroupDataSeq="208" ItemGroupOID="SV">
         <ItemData ItemOID="SV.STUDYID" Value="CDISCPILOT01"/>
         <ItemData ItemOID="SV.DOMAIN" Value="SV"/>
         <ItemData ItemOID="SV.USUBJID" Value="01-701-1153"/>
         <ItemData ItemOID="SV.VISITNUM" Value="9.2"/>
         <ItemData ItemOID="SV.VISIT" Value="UNSCHEDULED 9.2"/>
         <ItemData ItemOID="SV.SVSTDTC" Value="2014-01-08"/>
         <ItemData ItemOID="SV.SVENDTC" Value="2014-01-08"/>
      </ItemGroupData>
      <ItemGroupData data:ItemGroupDataSeq="209" ItemGroupOID="SV">
         <ItemData ItemOID="SV.STUDYID" Value="CDISCPILOT01"/>
         <ItemData ItemOID="SV.DOMAIN" Value="SV"/>
         <ItemData ItemOID="SV.USUBJID" Value="01-701-1153"/>
         <ItemData ItemOID="SV.VISITNUM" Value="9.3"/>
         <ItemData ItemOID="SV.VISIT" Value="UNSCHEDULED 9.3"/>
         <ItemData ItemOID="SV.SVSTDTC" Value="2013-12-30"/>
         <ItemData ItemOID="SV.SVENDTC" Value="2013-12-30"/>
      </ItemGroupData>
      <ItemGroupData data:ItemGroupDataSeq="210" ItemGroupOID="SV">
         <ItemData ItemOID="SV.STUDYID" Value="CDISCPILOT01"/>
         <ItemData ItemOID="SV.DOMAIN" Value="SV"/>
         <ItemData ItemOID="SV.USUBJID" Value="01-701-1153"/>
         <ItemData ItemOID="SV.VISITNUM" Value="10"/>
         <ItemData ItemOID="SV.VISIT" Value="WEEK 16"/>
         <ItemData ItemOID="SV.VISITDY" Value="112"/>
         <ItemData ItemOID="SV.SVSTDTC" Value="2014-01-08"/>
         <ItemData ItemOID="SV.SVENDTC" Value="2014-01-08"/>
      </ItemGroupData>
      <ItemGroupData data:ItemGroupDataSeq="211" ItemGroupOID="SV">
         <ItemData ItemOID="SV.STUDYID" Value="CDISCPILOT01"/>
         <ItemData ItemOID="SV.DOMAIN" Value="SV"/>
         <ItemData ItemOID="SV.USUBJID" Value="01-701-1153"/>
         <ItemData ItemOID="SV.VISITNUM" Value="11"/>
         <ItemData ItemOID="SV.VISIT" Value="WEEK 20"/>
         <ItemData ItemOID="SV.VISITDY" Value="140"/>
         <ItemData ItemOID="SV.SVSTDTC" Value="2014-02-11"/>
         <ItemData ItemOID="SV.SVENDTC" Value="2014-02-11"/>
      </ItemGroupData>
      <ItemGroupData data:ItemGroupDataSeq="212" ItemGroupOID="SV">
         <ItemData ItemOID="SV.STUDYID" Value="CDISCPILOT01"/>
         <ItemData ItemOID="SV.DOMAIN" Value="SV"/>
         <ItemData ItemOID="SV.USUBJID" Value="01-701-1153"/>
         <ItemData ItemOID="SV.VISITNUM" Value="11.1"/>
         <ItemData ItemOID="SV.VISIT" Value="WEEK 22 (T)"/>
         <ItemData ItemOID="SV.VISITDY" Value="154"/>
         <ItemData ItemOID="SV.SVSTDTC" Value="2014-02-25"/>
         <ItemData ItemOID="SV.SVENDTC" Value="2014-02-25"/>
      </ItemGroupData>
      <ItemGroupData data:ItemGroupDataSeq="213" ItemGroupOID="SV">
         <ItemData ItemOID="SV.STUDYID" Value="CDISCPILOT01"/>
         <ItemData ItemOID="SV.DOMAIN" Value="SV"/>
         <ItemData ItemOID="SV.USUBJID" Value="01-701-1153"/>
         <ItemData ItemOID="SV.VISITNUM" Value="12"/>
         <ItemData ItemOID="SV.VISIT" Value="WEEK 24"/>
         <ItemData ItemOID="SV.VISITDY" Value="168"/>
         <ItemData ItemOID="SV.SVSTDTC" Value="2014-03-11"/>
         <ItemData ItemOID="SV.SVENDTC" Value="2014-03-11"/>
      </ItemGroupData>
      <ItemGroupData data:ItemGroupDataSeq="214" ItemGroupOID="SV">
         <ItemData ItemOID="SV.STUDYID" Value="CDISCPILOT01"/>
         <ItemData ItemOID="SV.DOMAIN" Value="SV"/>
         <ItemData ItemOID="SV.USUBJID" Value="01-701-1153"/>
         <ItemData ItemOID="SV.VISITNUM" Value="13"/>
         <ItemData ItemOID="SV.VISIT" Value="WEEK 26"/>
         <ItemData ItemOID="SV.VISITDY" Value="182"/>
         <ItemData ItemOID="SV.SVSTDTC" Value="2014-04-01"/>
         <ItemData ItemOID="SV.SVENDTC" Value="2014-04-01"/>
      </ItemGroupData>
      <ItemGroupData data:ItemGroupDataSeq="215" ItemGroupOID="SV">
         <ItemData ItemOID="SV.STUDYID" Value="CDISCPILOT01"/>
         <ItemData ItemOID="SV.DOMAIN" Value="SV"/>
         <ItemData ItemOID="SV.USUBJID" Value="01-701-1162"/>
         <ItemData ItemOID="SV.VISITNUM" Value="1"/>
         <ItemData ItemOID="SV.VISIT" Value="SCREENING 1"/>
         <ItemData ItemOID="SV.VISITDY" Value="-7"/>
         <ItemData ItemOID="SV.SVSTDTC" Value="2013-04-18"/>
         <ItemData ItemOID="SV.SVENDTC" Value="2013-04-18"/>
      </ItemGroupData>
      <ItemGroupData data:ItemGroupDataSeq="216" ItemGroupOID="SV">
         <ItemData ItemOID="SV.STUDYID" Value="CDISCPILOT01"/>
         <ItemData ItemOID="SV.DOMAIN" Value="SV"/>
         <ItemData ItemOID="SV.USUBJID" Value="01-701-1176"/>
         <ItemData ItemOID="SV.VISITNUM" Value="1"/>
         <ItemData ItemOID="SV.VISIT" Value="SCREENING 1"/>
         <ItemData ItemOID="SV.VISITDY" Value="-7"/>
         <ItemData ItemOID="SV.SVSTDTC" Value="2012-09-30"/>
         <ItemData ItemOID="SV.SVENDTC" Value="2012-09-30"/>
      </ItemGroupData>
      <ItemGroupData data:ItemGroupDataSeq="217" ItemGroupOID="SV">
         <ItemData ItemOID="SV.STUDYID" Value="CDISCPILOT01"/>
         <ItemData ItemOID="SV.DOMAIN" Value="SV"/>
         <ItemData ItemOID="SV.USUBJID" Value="01-701-1180"/>
         <ItemData ItemOID="SV.VISITNUM" Value="1"/>
         <ItemData ItemOID="SV.VISIT" Value="SCREENING 1"/>
         <ItemData ItemOID="SV.VISITDY" Value="-7"/>
         <ItemData ItemOID="SV.SVSTDTC" Value="2013-01-28"/>
         <ItemData ItemOID="SV.SVENDTC" Value="2013-01-28"/>
      </ItemGroupData>
      <ItemGroupData data:ItemGroupDataSeq="218" ItemGroupOID="SV">
         <ItemData ItemOID="SV.STUDYID" Value="CDISCPILOT01"/>
         <ItemData ItemOID="SV.DOMAIN" Value="SV"/>
         <ItemData ItemOID="SV.USUBJID" Value="01-701-1180"/>
         <ItemData ItemOID="SV.VISITNUM" Value="2"/>
         <ItemData ItemOID="SV.VISIT" Value="SCREENING 2"/>
         <ItemData ItemOID="SV.VISITDY" Value="-1"/>
         <ItemData ItemOID="SV.SVSTDTC" Value="2013-02-10"/>
         <ItemData ItemOID="SV.SVENDTC" Value="2013-02-10"/>
      </ItemGroupData>
      <ItemGroupData data:ItemGroupDataSeq="219" ItemGroupOID="SV">
         <ItemData ItemOID="SV.STUDYID" Value="CDISCPILOT01"/>
         <ItemData ItemOID="SV.DOMAIN" Value="SV"/>
         <ItemData ItemOID="SV.USUBJID" Value="01-701-1180"/>
         <ItemData ItemOID="SV.VISITNUM" Value="3"/>
         <ItemData ItemOID="SV.VISIT" Value="BASELINE"/>
         <ItemData ItemOID="SV.VISITDY" Value="1"/>
         <ItemData ItemOID="SV.SVSTDTC" Value="2013-02-12"/>
         <ItemData ItemOID="SV.SVENDTC" Value="2013-02-12"/>
      </ItemGroupData>
      <ItemGroupData data:ItemGroupDataSeq="220" ItemGroupOID="SV">
         <ItemData ItemOID="SV.STUDYID" Value="CDISCPILOT01"/>
         <ItemData ItemOID="SV.DOMAIN" Value="SV"/>
         <ItemData ItemOID="SV.USUBJID" Value="01-701-1180"/>
         <ItemData ItemOID="SV.VISITNUM" Value="3.5"/>
         <ItemData ItemOID="SV.VISIT" Value="AMBUL ECG PLACEMENT"/>
         <ItemData ItemOID="SV.VISITDY" Value="13"/>
         <ItemData ItemOID="SV.SVSTDTC" Value="2013-02-24"/>
         <ItemData ItemOID="SV.SVENDTC" Value="2013-02-24"/>
      </ItemGroupData>
      <ItemGroupData data:ItemGroupDataSeq="221" ItemGroupOID="SV">
         <ItemData ItemOID="SV.STUDYID" Value="CDISCPILOT01"/>
         <ItemData ItemOID="SV.DOMAIN" Value="SV"/>
         <ItemData ItemOID="SV.USUBJID" Value="01-701-1180"/>
         <ItemData ItemOID="SV.VISITNUM" Value="4"/>
         <ItemData ItemOID="SV.VISIT" Value="WEEK 2"/>
         <ItemData ItemOID="SV.VISITDY" Value="14"/>
         <ItemData ItemOID="SV.SVSTDTC" Value="2013-02-25"/>
         <ItemData ItemOID="SV.SVENDTC" Value="2013-02-25"/>
      </ItemGroupData>
      <ItemGroupData data:ItemGroupDataSeq="222" ItemGroupOID="SV">
         <ItemData ItemOID="SV.STUDYID" Value="CDISCPILOT01"/>
         <ItemData ItemOID="SV.DOMAIN" Value="SV"/>
         <ItemData ItemOID="SV.USUBJID" Value="01-701-1180"/>
         <ItemData ItemOID="SV.VISITNUM" Value="5"/>
         <ItemData ItemOID="SV.VISIT" Value="WEEK 4"/>
         <ItemData ItemOID="SV.VISITDY" Value="28"/>
         <ItemData ItemOID="SV.SVSTDTC" Value="2013-03-11"/>
         <ItemData ItemOID="SV.SVENDTC" Value="2013-03-11"/>
      </ItemGroupData>
      <ItemGroupData data:ItemGroupDataSeq="223" ItemGroupOID="SV">
         <ItemData ItemOID="SV.STUDYID" Value="CDISCPILOT01"/>
         <ItemData ItemOID="SV.DOMAIN" Value="SV"/>
         <ItemData ItemOID="SV.USUBJID" Value="01-701-1180"/>
         <ItemData ItemOID="SV.VISITNUM" Value="6"/>
         <ItemData ItemOID="SV.VISIT" Value="AMBUL ECG REMOVAL"/>
         <ItemData ItemOID="SV.VISITDY" Value="30"/>
         <ItemData ItemOID="SV.SVSTDTC" Value="2013-03-13"/>
         <ItemData ItemOID="SV.SVENDTC" Value="2013-03-13"/>
      </ItemGroupData>
      <ItemGroupData data:ItemGroupDataSeq="224" ItemGroupOID="SV">
         <ItemData ItemOID="SV.STUDYID" Value="CDISCPILOT01"/>
         <ItemData ItemOID="SV.DOMAIN" Value="SV"/>
         <ItemData ItemOID="SV.USUBJID" Value="01-701-1180"/>
         <ItemData ItemOID="SV.VISITNUM" Value="7"/>
         <ItemData ItemOID="SV.VISIT" Value="WEEK 6"/>
         <ItemData ItemOID="SV.VISITDY" Value="42"/>
         <ItemData ItemOID="SV.SVSTDTC" Value="2013-03-23"/>
         <ItemData ItemOID="SV.SVENDTC" Value="2013-03-23"/>
      </ItemGroupData>
      <ItemGroupData data:ItemGroupDataSeq="225" ItemGroupOID="SV">
         <ItemData ItemOID="SV.STUDYID" Value="CDISCPILOT01"/>
         <ItemData ItemOID="SV.DOMAIN" Value="SV"/>
         <ItemData ItemOID="SV.USUBJID" Value="01-701-1180"/>
         <ItemData ItemOID="SV.VISITNUM" Value="101"/>
         <ItemData ItemOID="SV.VISIT" Value="AE FOLLOW-UP"/>
         <ItemData ItemOID="SV.SVSTDTC" Value="2013-04-07"/>
         <ItemData ItemOID="SV.SVENDTC" Value="2013-04-07"/>
      </ItemGroupData>
      <ItemGroupData data:ItemGroupDataSeq="226" ItemGroupOID="SV">
         <ItemData ItemOID="SV.STUDYID" Value="CDISCPILOT01"/>
         <ItemData ItemOID="SV.DOMAIN" Value="SV"/>
         <ItemData ItemOID="SV.USUBJID" Value="01-701-1181"/>
         <ItemData ItemOID="SV.VISITNUM" Value="1"/>
         <ItemData ItemOID="SV.VISIT" Value="SCREENING 1"/>
         <ItemData ItemOID="SV.VISITDY" Value="-7"/>
         <ItemData ItemOID="SV.SVSTDTC" Value="2013-11-26"/>
         <ItemData ItemOID="SV.SVENDTC" Value="2013-11-26"/>
      </ItemGroupData>
      <ItemGroupData data:ItemGroupDataSeq="227" ItemGroupOID="SV">
         <ItemData ItemOID="SV.STUDYID" Value="CDISCPILOT01"/>
         <ItemData ItemOID="SV.DOMAIN" Value="SV"/>
         <ItemData ItemOID="SV.USUBJID" Value="01-701-1181"/>
         <ItemData ItemOID="SV.VISITNUM" Value="2"/>
         <ItemData ItemOID="SV.VISIT" Value="SCREENING 2"/>
         <ItemData ItemOID="SV.VISITDY" Value="-1"/>
         <ItemData ItemOID="SV.SVSTDTC" Value="2013-12-03"/>
         <ItemData ItemOID="SV.SVENDTC" Value="2013-12-03"/>
      </ItemGroupData>
      <ItemGroupData data:ItemGroupDataSeq="228" ItemGroupOID="SV">
         <ItemData ItemOID="SV.STUDYID" Value="CDISCPILOT01"/>
         <ItemData ItemOID="SV.DOMAIN" Value="SV"/>
         <ItemData ItemOID="SV.USUBJID" Value="01-701-1181"/>
         <ItemData ItemOID="SV.VISITNUM" Value="3"/>
         <ItemData ItemOID="SV.VISIT" Value="BASELINE"/>
         <ItemData ItemOID="SV.VISITDY" Value="1"/>
         <ItemData ItemOID="SV.SVSTDTC" Value="2013-12-05"/>
         <ItemData ItemOID="SV.SVENDTC" Value="2013-12-05"/>
      </ItemGroupData>
      <ItemGroupData data:ItemGroupDataSeq="229" ItemGroupOID="SV">
         <ItemData ItemOID="SV.STUDYID" Value="CDISCPILOT01"/>
         <ItemData ItemOID="SV.DOMAIN" Value="SV"/>
         <ItemData ItemOID="SV.USUBJID" Value="01-701-1181"/>
         <ItemData ItemOID="SV.VISITNUM" Value="4"/>
         <ItemData ItemOID="SV.VISIT" Value="WEEK 2"/>
         <ItemData ItemOID="SV.VISITDY" Value="14"/>
         <ItemData ItemOID="SV.SVSTDTC" Value="2013-12-12"/>
         <ItemData ItemOID="SV.SVENDTC" Value="2013-12-12"/>
      </ItemGroupData>
      <ItemGroupData data:ItemGroupDataSeq="230" ItemGroupOID="SV">
         <ItemData ItemOID="SV.STUDYID" Value="CDISCPILOT01"/>
         <ItemData ItemOID="SV.DOMAIN" Value="SV"/>
         <ItemData ItemOID="SV.USUBJID" Value="01-701-1181"/>
         <ItemData ItemOID="SV.VISITNUM" Value="101"/>
         <ItemData ItemOID="SV.VISIT" Value="AE FOLLOW-UP"/>
         <ItemData ItemOID="SV.SVSTDTC" Value="2013-12-20"/>
         <ItemData ItemOID="SV.SVENDTC" Value="2013-12-20"/>
      </ItemGroupData>
      <ItemGroupData data:ItemGroupDataSeq="231" ItemGroupOID="SV">
         <ItemData ItemOID="SV.STUDYID" Value="CDISCPILOT01"/>
         <ItemData ItemOID="SV.DOMAIN" Value="SV"/>
         <ItemData ItemOID="SV.USUBJID" Value="01-701-1181"/>
         <ItemData ItemOID="SV.VISITNUM" Value="201"/>
         <ItemData ItemOID="SV.VISIT" Value="RETRIEVAL"/>
         <ItemData ItemOID="SV.VISITDY" Value="168"/>
         <ItemData ItemOID="SV.SVSTDTC" Value="2014-05-23"/>
         <ItemData ItemOID="SV.SVENDTC" Value="2014-05-23"/>
      </ItemGroupData>
      <ItemGroupData data:ItemGroupDataSeq="232" ItemGroupOID="SV">
         <ItemData ItemOID="SV.STUDYID" Value="CDISCPILOT01"/>
         <ItemData ItemOID="SV.DOMAIN" Value="SV"/>
         <ItemData ItemOID="SV.USUBJID" Value="01-701-1188"/>
         <ItemData ItemOID="SV.VISITNUM" Value="1"/>
         <ItemData ItemOID="SV.VISIT" Value="SCREENING 1"/>
         <ItemData ItemOID="SV.VISITDY" Value="-7"/>
         <ItemData ItemOID="SV.SVSTDTC" Value="2013-02-03"/>
         <ItemData ItemOID="SV.SVENDTC" Value="2013-02-03"/>
      </ItemGroupData>
      <ItemGroupData data:ItemGroupDataSeq="233" ItemGroupOID="SV">
         <ItemData ItemOID="SV.STUDYID" Value="CDISCPILOT01"/>
         <ItemData ItemOID="SV.DOMAIN" Value="SV"/>
         <ItemData ItemOID="SV.USUBJID" Value="01-701-1188"/>
         <ItemData ItemOID="SV.VISITNUM" Value="2"/>
         <ItemData ItemOID="SV.VISIT" Value="SCREENING 2"/>
         <ItemData ItemOID="SV.VISITDY" Value="-1"/>
         <ItemData ItemOID="SV.SVSTDTC" Value="2013-02-10"/>
         <ItemData ItemOID="SV.SVENDTC" Value="2013-02-10"/>
      </ItemGroupData>
      <ItemGroupData data:ItemGroupDataSeq="234" ItemGroupOID="SV">
         <ItemData ItemOID="SV.STUDYID" Value="CDISCPILOT01"/>
         <ItemData ItemOID="SV.DOMAIN" Value="SV"/>
         <ItemData ItemOID="SV.USUBJID" Value="01-701-1188"/>
         <ItemData ItemOID="SV.VISITNUM" Value="3"/>
         <ItemData ItemOID="SV.VISIT" Value="BASELINE"/>
         <ItemData ItemOID="SV.VISITDY" Value="1"/>
         <ItemData ItemOID="SV.SVSTDTC" Value="2013-02-15"/>
         <ItemData ItemOID="SV.SVENDTC" Value="2013-02-15"/>
      </ItemGroupData>
      <ItemGroupData data:ItemGroupDataSeq="235" ItemGroupOID="SV">
         <ItemData ItemOID="SV.STUDYID" Value="CDISCPILOT01"/>
         <ItemData ItemOID="SV.DOMAIN" Value="SV"/>
         <ItemData ItemOID="SV.USUBJID" Value="01-701-1188"/>
         <ItemData ItemOID="SV.VISITNUM" Value="3.5"/>
         <ItemData ItemOID="SV.VISIT" Value="AMBUL ECG PLACEMENT"/>
         <ItemData ItemOID="SV.VISITDY" Value="13"/>
         <ItemData ItemOID="SV.SVSTDTC" Value="2013-03-01"/>
         <ItemData ItemOID="SV.SVENDTC" Value="2013-03-01"/>
      </ItemGroupData>
      <ItemGroupData data:ItemGroupDataSeq="236" ItemGroupOID="SV">
         <ItemData ItemOID="SV.STUDYID" Value="CDISCPILOT01"/>
         <ItemData ItemOID="SV.DOMAIN" Value="SV"/>
         <ItemData ItemOID="SV.USUBJID" Value="01-701-1188"/>
         <ItemData ItemOID="SV.VISITNUM" Value="4"/>
         <ItemData ItemOID="SV.VISIT" Value="WEEK 2"/>
         <ItemData ItemOID="SV.VISITDY" Value="14"/>
         <ItemData ItemOID="SV.SVSTDTC" Value="2013-03-02"/>
         <ItemData ItemOID="SV.SVENDTC" Value="2013-03-02"/>
      </ItemGroupData>
      <ItemGroupData data:ItemGroupDataSeq="237" ItemGroupOID="SV">
         <ItemData ItemOID="SV.STUDYID" Value="CDISCPILOT01"/>
         <ItemData ItemOID="SV.DOMAIN" Value="SV"/>
         <ItemData ItemOID="SV.USUBJID" Value="01-701-1188"/>
         <ItemData ItemOID="SV.VISITNUM" Value="5"/>
         <ItemData ItemOID="SV.VISIT" Value="WEEK 4"/>
         <ItemData ItemOID="SV.VISITDY" Value="28"/>
         <ItemData ItemOID="SV.SVSTDTC" Value="2013-03-16"/>
         <ItemData ItemOID="SV.SVENDTC" Value="2013-03-16"/>
      </ItemGroupData>
      <ItemGroupData data:ItemGroupDataSeq="238" ItemGroupOID="SV">
         <ItemData ItemOID="SV.STUDYID" Value="CDISCPILOT01"/>
         <ItemData ItemOID="SV.DOMAIN" Value="SV"/>
         <ItemData ItemOID="SV.USUBJID" Value="01-701-1188"/>
         <ItemData ItemOID="SV.VISITNUM" Value="6"/>
         <ItemData ItemOID="SV.VISIT" Value="AMBUL ECG REMOVAL"/>
         <ItemData ItemOID="SV.VISITDY" Value="30"/>
         <ItemData ItemOID="SV.SVSTDTC" Value="2013-03-18"/>
         <ItemData ItemOID="SV.SVENDTC" Value="2013-03-18"/>
      </ItemGroupData>
      <ItemGroupData data:ItemGroupDataSeq="239" ItemGroupOID="SV">
         <ItemData ItemOID="SV.STUDYID" Value="CDISCPILOT01"/>
         <ItemData ItemOID="SV.DOMAIN" Value="SV"/>
         <ItemData ItemOID="SV.USUBJID" Value="01-701-1188"/>
         <ItemData ItemOID="SV.VISITNUM" Value="7"/>
         <ItemData ItemOID="SV.VISIT" Value="WEEK 6"/>
         <ItemData ItemOID="SV.VISITDY" Value="42"/>
         <ItemData ItemOID="SV.SVSTDTC" Value="2013-03-25"/>
         <ItemData ItemOID="SV.SVENDTC" Value="2013-03-25"/>
      </ItemGroupData>
      <ItemGroupData data:ItemGroupDataSeq="240" ItemGroupOID="SV">
         <ItemData ItemOID="SV.STUDYID" Value="CDISCPILOT01"/>
         <ItemData ItemOID="SV.DOMAIN" Value="SV"/>
         <ItemData ItemOID="SV.USUBJID" Value="01-701-1188"/>
         <ItemData ItemOID="SV.VISITNUM" Value="101"/>
         <ItemData ItemOID="SV.VISIT" Value="AE FOLLOW-UP"/>
         <ItemData ItemOID="SV.SVSTDTC" Value="2013-06-01"/>
         <ItemData ItemOID="SV.SVENDTC" Value="2013-06-01"/>
      </ItemGroupData>
      <ItemGroupData data:ItemGroupDataSeq="241" ItemGroupOID="SV">
         <ItemData ItemOID="SV.STUDYID" Value="CDISCPILOT01"/>
         <ItemData ItemOID="SV.DOMAIN" Value="SV"/>
         <ItemData ItemOID="SV.USUBJID" Value="01-701-1188"/>
         <ItemData ItemOID="SV.VISITNUM" Value="201"/>
         <ItemData ItemOID="SV.VISIT" Value="RETRIEVAL"/>
         <ItemData ItemOID="SV.VISITDY" Value="168"/>
         <ItemData ItemOID="SV.SVSTDTC" Value="2013-08-04"/>
         <ItemData ItemOID="SV.SVENDTC" Value="2013-08-04"/>
      </ItemGroupData>
      <ItemGroupData data:ItemGroupDataSeq="242" ItemGroupOID="SV">
         <ItemData ItemOID="SV.STUDYID" Value="CDISCPILOT01"/>
         <ItemData ItemOID="SV.DOMAIN" Value="SV"/>
         <ItemData ItemOID="SV.USUBJID" Value="01-701-1192"/>
         <ItemData ItemOID="SV.VISITNUM" Value="1"/>
         <ItemData ItemOID="SV.VISIT" Value="SCREENING 1"/>
         <ItemData ItemOID="SV.VISITDY" Value="-7"/>
         <ItemData ItemOID="SV.SVSTDTC" Value="2012-07-08"/>
         <ItemData ItemOID="SV.SVENDTC" Value="2012-07-08"/>
      </ItemGroupData>
      <ItemGroupData data:ItemGroupDataSeq="243" ItemGroupOID="SV">
         <ItemData ItemOID="SV.STUDYID" Value="CDISCPILOT01"/>
         <ItemData ItemOID="SV.DOMAIN" Value="SV"/>
         <ItemData ItemOID="SV.USUBJID" Value="01-701-1192"/>
         <ItemData ItemOID="SV.VISITNUM" Value="2"/>
         <ItemData ItemOID="SV.VISIT" Value="SCREENING 2"/>
         <ItemData ItemOID="SV.VISITDY" Value="-1"/>
         <ItemData ItemOID="SV.SVSTDTC" Value="2012-07-20"/>
         <ItemData ItemOID="SV.SVENDTC" Value="2012-07-20"/>
      </ItemGroupData>
      <ItemGroupData data:ItemGroupDataSeq="244" ItemGroupOID="SV">
         <ItemData ItemOID="SV.STUDYID" Value="CDISCPILOT01"/>
         <ItemData ItemOID="SV.DOMAIN" Value="SV"/>
         <ItemData ItemOID="SV.USUBJID" Value="01-701-1192"/>
         <ItemData ItemOID="SV.VISITNUM" Value="3"/>
         <ItemData ItemOID="SV.VISIT" Value="BASELINE"/>
         <ItemData ItemOID="SV.VISITDY" Value="1"/>
         <ItemData ItemOID="SV.SVSTDTC" Value="2012-07-22"/>
         <ItemData ItemOID="SV.SVENDTC" Value="2012-07-22"/>
      </ItemGroupData>
      <ItemGroupData data:ItemGroupDataSeq="245" ItemGroupOID="SV">
         <ItemData ItemOID="SV.STUDYID" Value="CDISCPILOT01"/>
         <ItemData ItemOID="SV.DOMAIN" Value="SV"/>
         <ItemData ItemOID="SV.USUBJID" Value="01-701-1192"/>
         <ItemData ItemOID="SV.VISITNUM" Value="3.5"/>
         <ItemData ItemOID="SV.VISIT" Value="AMBUL ECG PLACEMENT"/>
         <ItemData ItemOID="SV.VISITDY" Value="13"/>
         <ItemData ItemOID="SV.SVSTDTC" Value="2012-08-04"/>
         <ItemData ItemOID="SV.SVENDTC" Value="2012-08-04"/>
      </ItemGroupData>
      <ItemGroupData data:ItemGroupDataSeq="246" ItemGroupOID="SV">
         <ItemData ItemOID="SV.STUDYID" Value="CDISCPILOT01"/>
         <ItemData ItemOID="SV.DOMAIN" Value="SV"/>
         <ItemData ItemOID="SV.USUBJID" Value="01-701-1192"/>
         <ItemData ItemOID="SV.VISITNUM" Value="4"/>
         <ItemData ItemOID="SV.VISIT" Value="WEEK 2"/>
         <ItemData ItemOID="SV.VISITDY" Value="14"/>
         <ItemData ItemOID="SV.SVSTDTC" Value="2012-08-07"/>
         <ItemData ItemOID="SV.SVENDTC" Value="2012-08-07"/>
      </ItemGroupData>
      <ItemGroupData data:ItemGroupDataSeq="247" ItemGroupOID="SV">
         <ItemData ItemOID="SV.STUDYID" Value="CDISCPILOT01"/>
         <ItemData ItemOID="SV.DOMAIN" Value="SV"/>
         <ItemData ItemOID="SV.USUBJID" Value="01-701-1192"/>
         <ItemData ItemOID="SV.VISITNUM" Value="5"/>
         <ItemData ItemOID="SV.VISIT" Value="WEEK 4"/>
         <ItemData ItemOID="SV.VISITDY" Value="28"/>
         <ItemData ItemOID="SV.SVSTDTC" Value="2012-08-21"/>
         <ItemData ItemOID="SV.SVENDTC" Value="2012-08-21"/>
      </ItemGroupData>
      <ItemGroupData data:ItemGroupDataSeq="248" ItemGroupOID="SV">
         <ItemData ItemOID="SV.STUDYID" Value="CDISCPILOT01"/>
         <ItemData ItemOID="SV.DOMAIN" Value="SV"/>
         <ItemData ItemOID="SV.USUBJID" Value="01-701-1192"/>
         <ItemData ItemOID="SV.VISITNUM" Value="5.1"/>
         <ItemData ItemOID="SV.VISIT" Value="UNSCHEDULED 5.1"/>
         <ItemData ItemOID="SV.SVSTDTC" Value="2012-08-21"/>
         <ItemData ItemOID="SV.SVENDTC" Value="2012-08-21"/>
      </ItemGroupData>
      <ItemGroupData data:ItemGroupDataSeq="249" ItemGroupOID="SV">
         <ItemData ItemOID="SV.STUDYID" Value="CDISCPILOT01"/>
         <ItemData ItemOID="SV.DOMAIN" Value="SV"/>
         <ItemData ItemOID="SV.USUBJID" Value="01-701-1192"/>
         <ItemData ItemOID="SV.VISITNUM" Value="6"/>
         <ItemData ItemOID="SV.VISIT" Value="AMBUL ECG REMOVAL"/>
         <ItemData ItemOID="SV.VISITDY" Value="30"/>
         <ItemData ItemOID="SV.SVSTDTC" Value="2012-08-23"/>
         <ItemData ItemOID="SV.SVENDTC" Value="2012-08-23"/>
      </ItemGroupData>
      <ItemGroupData data:ItemGroupDataSeq="250" ItemGroupOID="SV">
         <ItemData ItemOID="SV.STUDYID" Value="CDISCPILOT01"/>
         <ItemData ItemOID="SV.DOMAIN" Value="SV"/>
         <ItemData ItemOID="SV.USUBJID" Value="01-701-1192"/>
         <ItemData ItemOID="SV.VISITNUM" Value="7"/>
         <ItemData ItemOID="SV.VISIT" Value="WEEK 6"/>
         <ItemData ItemOID="SV.VISITDY" Value="42"/>
         <ItemData ItemOID="SV.SVSTDTC" Value="2012-09-04"/>
         <ItemData ItemOID="SV.SVENDTC" Value="2012-09-04"/>
      </ItemGroupData>
      <ItemGroupData data:ItemGroupDataSeq="251" ItemGroupOID="SV">
         <ItemData ItemOID="SV.STUDYID" Value="CDISCPILOT01"/>
         <ItemData ItemOID="SV.DOMAIN" Value="SV"/>
         <ItemData ItemOID="SV.USUBJID" Value="01-701-1192"/>
         <ItemData ItemOID="SV.VISITNUM" Value="8"/>
         <ItemData ItemOID="SV.VISIT" Value="WEEK 8"/>
         <ItemData ItemOID="SV.VISITDY" Value="56"/>
         <ItemData ItemOID="SV.SVSTDTC" Value="2012-09-23"/>
         <ItemData ItemOID="SV.SVENDTC" Value="2012-09-23"/>
      </ItemGroupData>
      <ItemGroupData data:ItemGroupDataSeq="252" ItemGroupOID="SV">
         <ItemData ItemOID="SV.STUDYID" Value="CDISCPILOT01"/>
         <ItemData ItemOID="SV.DOMAIN" Value="SV"/>
         <ItemData ItemOID="SV.USUBJID" Value="01-701-1192"/>
         <ItemData ItemOID="SV.VISITNUM" Value="8.1"/>
         <ItemData ItemOID="SV.VISIT" Value="WEEK 10 (T)"/>
         <ItemData ItemOID="SV.VISITDY" Value="70"/>
         <ItemData ItemOID="SV.SVSTDTC" Value="2012-09-30"/>
         <ItemData ItemOID="SV.SVENDTC" Value="2012-09-30"/>
      </ItemGroupData>
      <ItemGroupData data:ItemGroupDataSeq="253" ItemGroupOID="SV">
         <ItemData ItemOID="SV.STUDYID" Value="CDISCPILOT01"/>
         <ItemData ItemOID="SV.DOMAIN" Value="SV"/>
         <ItemData ItemOID="SV.USUBJID" Value="01-701-1192"/>
         <ItemData ItemOID="SV.VISITNUM" Value="9"/>
         <ItemData ItemOID="SV.VISIT" Value="WEEK 12"/>
         <ItemData ItemOID="SV.VISITDY" Value="84"/>
         <ItemData ItemOID="SV.SVSTDTC" Value="2012-10-14"/>
         <ItemData ItemOID="SV.SVENDTC" Value="2012-10-14"/>
      </ItemGroupData>
      <ItemGroupData data:ItemGroupDataSeq="254" ItemGroupOID="SV">
         <ItemData ItemOID="SV.STUDYID" Value="CDISCPILOT01"/>
         <ItemData ItemOID="SV.DOMAIN" Value="SV"/>
         <ItemData ItemOID="SV.USUBJID" Value="01-701-1192"/>
         <ItemData ItemOID="SV.VISITNUM" Value="9.1"/>
         <ItemData ItemOID="SV.VISIT" Value="WEEK 14 (T)"/>
         <ItemData ItemOID="SV.VISITDY" Value="98"/>
         <ItemData ItemOID="SV.SVSTDTC" Value="2012-10-29"/>
         <ItemData ItemOID="SV.SVENDTC" Value="2012-10-29"/>
      </ItemGroupData>
      <ItemGroupData data:ItemGroupDataSeq="255" ItemGroupOID="SV">
         <ItemData ItemOID="SV.STUDYID" Value="CDISCPILOT01"/>
         <ItemData ItemOID="SV.DOMAIN" Value="SV"/>
         <ItemData ItemOID="SV.USUBJID" Value="01-701-1192"/>
         <ItemData ItemOID="SV.VISITNUM" Value="10"/>
         <ItemData ItemOID="SV.VISIT" Value="WEEK 16"/>
         <ItemData ItemOID="SV.VISITDY" Value="112"/>
         <ItemData ItemOID="SV.SVSTDTC" Value="2012-11-15"/>
         <ItemData ItemOID="SV.SVENDTC" Value="2012-11-15"/>
      </ItemGroupData>
      <ItemGroupData data:ItemGroupDataSeq="256" ItemGroupOID="SV">
         <ItemData ItemOID="SV.STUDYID" Value="CDISCPILOT01"/>
         <ItemData ItemOID="SV.DOMAIN" Value="SV"/>
         <ItemData ItemOID="SV.USUBJID" Value="01-701-1192"/>
         <ItemData ItemOID="SV.VISITNUM" Value="10.1"/>
         <ItemData ItemOID="SV.VISIT" Value="WEEK 18 (T)"/>
         <ItemData ItemOID="SV.VISITDY" Value="126"/>
         <ItemData ItemOID="SV.SVSTDTC" Value="2012-11-26"/>
         <ItemData ItemOID="SV.SVENDTC" Value="2012-11-26"/>
      </ItemGroupData>
      <ItemGroupData data:ItemGroupDataSeq="257" ItemGroupOID="SV">
         <ItemData ItemOID="SV.STUDYID" Value="CDISCPILOT01"/>
         <ItemData ItemOID="SV.DOMAIN" Value="SV"/>
         <ItemData ItemOID="SV.USUBJID" Value="01-701-1192"/>
         <ItemData ItemOID="SV.VISITNUM" Value="11"/>
         <ItemData ItemOID="SV.VISIT" Value="WEEK 20"/>
         <ItemData ItemOID="SV.VISITDY" Value="140"/>
         <ItemData ItemOID="SV.SVSTDTC" Value="2012-12-13"/>
         <ItemData ItemOID="SV.SVENDTC" Value="2012-12-13"/>
      </ItemGroupData>
      <ItemGroupData data:ItemGroupDataSeq="258" ItemGroupOID="SV">
         <ItemData ItemOID="SV.STUDYID" Value="CDISCPILOT01"/>
         <ItemData ItemOID="SV.DOMAIN" Value="SV"/>
         <ItemData ItemOID="SV.USUBJID" Value="01-701-1192"/>
         <ItemData ItemOID="SV.VISITNUM" Value="11.1"/>
         <ItemData ItemOID="SV.VISIT" Value="WEEK 22 (T)"/>
         <ItemData ItemOID="SV.VISITDY" Value="154"/>
         <ItemData ItemOID="SV.SVSTDTC" Value="2012-12-27"/>
         <ItemData ItemOID="SV.SVENDTC" Value="2012-12-27"/>
      </ItemGroupData>
      <ItemGroupData data:ItemGroupDataSeq="259" ItemGroupOID="SV">
         <ItemData ItemOID="SV.STUDYID" Value="CDISCPILOT01"/>
         <ItemData ItemOID="SV.DOMAIN" Value="SV"/>
         <ItemData ItemOID="SV.USUBJID" Value="01-701-1192"/>
         <ItemData ItemOID="SV.VISITNUM" Value="12"/>
         <ItemData ItemOID="SV.VISIT" Value="WEEK 24"/>
         <ItemData ItemOID="SV.VISITDY" Value="168"/>
         <ItemData ItemOID="SV.SVSTDTC" Value="2013-01-11"/>
         <ItemData ItemOID="SV.SVENDTC" Value="2013-01-11"/>
      </ItemGroupData>
      <ItemGroupData data:ItemGroupDataSeq="260" ItemGroupOID="SV">
         <ItemData ItemOID="SV.STUDYID" Value="CDISCPILOT01"/>
         <ItemData ItemOID="SV.DOMAIN" Value="SV"/>
         <ItemData ItemOID="SV.USUBJID" Value="01-701-1192"/>
         <ItemData ItemOID="SV.VISITNUM" Value="13"/>
         <ItemData ItemOID="SV.VISIT" Value="WEEK 26"/>
         <ItemData ItemOID="SV.VISITDY" Value="182"/>
         <ItemData ItemOID="SV.SVSTDTC" Value="2013-01-20"/>
         <ItemData ItemOID="SV.SVENDTC" Value="2013-01-20"/>
      </ItemGroupData>
      <ItemGroupData data:ItemGroupDataSeq="261" ItemGroupOID="SV">
         <ItemData ItemOID="SV.STUDYID" Value="CDISCPILOT01"/>
         <ItemData ItemOID="SV.DOMAIN" Value="SV"/>
         <ItemData ItemOID="SV.USUBJID" Value="01-701-1203"/>
         <ItemData ItemOID="SV.VISITNUM" Value="1"/>
         <ItemData ItemOID="SV.VISIT" Value="SCREENING 1"/>
         <ItemData ItemOID="SV.VISITDY" Value="-7"/>
         <ItemData ItemOID="SV.SVSTDTC" Value="2013-01-25"/>
         <ItemData ItemOID="SV.SVENDTC" Value="2013-01-25"/>
      </ItemGroupData>
      <ItemGroupData data:ItemGroupDataSeq="262" ItemGroupOID="SV">
         <ItemData ItemOID="SV.STUDYID" Value="CDISCPILOT01"/>
         <ItemData ItemOID="SV.DOMAIN" Value="SV"/>
         <ItemData ItemOID="SV.USUBJID" Value="01-701-1203"/>
         <ItemData ItemOID="SV.VISITNUM" Value="2"/>
         <ItemData ItemOID="SV.VISIT" Value="SCREENING 2"/>
         <ItemData ItemOID="SV.VISITDY" Value="-1"/>
         <ItemData ItemOID="SV.SVSTDTC" Value="2013-02-01"/>
         <ItemData ItemOID="SV.SVENDTC" Value="2013-02-01"/>
      </ItemGroupData>
      <ItemGroupData data:ItemGroupDataSeq="263" ItemGroupOID="SV">
         <ItemData ItemOID="SV.STUDYID" Value="CDISCPILOT01"/>
         <ItemData ItemOID="SV.DOMAIN" Value="SV"/>
         <ItemData ItemOID="SV.USUBJID" Value="01-701-1203"/>
         <ItemData ItemOID="SV.VISITNUM" Value="3"/>
         <ItemData ItemOID="SV.VISIT" Value="BASELINE"/>
         <ItemData ItemOID="SV.VISITDY" Value="1"/>
         <ItemData ItemOID="SV.SVSTDTC" Value="2013-02-02"/>
         <ItemData ItemOID="SV.SVENDTC" Value="2013-02-02"/>
      </ItemGroupData>
      <ItemGroupData data:ItemGroupDataSeq="264" ItemGroupOID="SV">
         <ItemData ItemOID="SV.STUDYID" Value="CDISCPILOT01"/>
         <ItemData ItemOID="SV.DOMAIN" Value="SV"/>
         <ItemData ItemOID="SV.USUBJID" Value="01-701-1203"/>
         <ItemData ItemOID="SV.VISITNUM" Value="4"/>
         <ItemData ItemOID="SV.VISIT" Value="WEEK 2"/>
         <ItemData ItemOID="SV.VISITDY" Value="14"/>
         <ItemData ItemOID="SV.SVSTDTC" Value="2013-02-23"/>
         <ItemData ItemOID="SV.SVENDTC" Value="2013-02-23"/>
      </ItemGroupData>
      <ItemGroupData data:ItemGroupDataSeq="265" ItemGroupOID="SV">
         <ItemData ItemOID="SV.STUDYID" Value="CDISCPILOT01"/>
         <ItemData ItemOID="SV.DOMAIN" Value="SV"/>
         <ItemData ItemOID="SV.USUBJID" Value="01-701-1203"/>
         <ItemData ItemOID="SV.VISITNUM" Value="5"/>
         <ItemData ItemOID="SV.VISIT" Value="WEEK 4"/>
         <ItemData ItemOID="SV.VISITDY" Value="28"/>
         <ItemData ItemOID="SV.SVSTDTC" Value="2013-03-02"/>
         <ItemData ItemOID="SV.SVENDTC" Value="2013-03-02"/>
      </ItemGroupData>
      <ItemGroupData data:ItemGroupDataSeq="266" ItemGroupOID="SV">
         <ItemData ItemOID="SV.STUDYID" Value="CDISCPILOT01"/>
         <ItemData ItemOID="SV.DOMAIN" Value="SV"/>
         <ItemData ItemOID="SV.USUBJID" Value="01-701-1203"/>
         <ItemData ItemOID="SV.VISITNUM" Value="6"/>
         <ItemData ItemOID="SV.VISIT" Value="AMBUL ECG REMOVAL"/>
         <ItemData ItemOID="SV.VISITDY" Value="30"/>
         <ItemData ItemOID="SV.SVSTDTC" Value="2013-03-04"/>
         <ItemData ItemOID="SV.SVENDTC" Value="2013-03-04"/>
      </ItemGroupData>
      <ItemGroupData data:ItemGroupDataSeq="267" ItemGroupOID="SV">
         <ItemData ItemOID="SV.STUDYID" Value="CDISCPILOT01"/>
         <ItemData ItemOID="SV.DOMAIN" Value="SV"/>
         <ItemData ItemOID="SV.USUBJID" Value="01-701-1203"/>
         <ItemData ItemOID="SV.VISITNUM" Value="7"/>
         <ItemData ItemOID="SV.VISIT" Value="WEEK 6"/>
         <ItemData ItemOID="SV.VISITDY" Value="42"/>
         <ItemData ItemOID="SV.SVSTDTC" Value="2013-03-16"/>
         <ItemData ItemOID="SV.SVENDTC" Value="2013-03-16"/>
      </ItemGroupData>
      <ItemGroupData data:ItemGroupDataSeq="268" ItemGroupOID="SV">
         <ItemData ItemOID="SV.STUDYID" Value="CDISCPILOT01"/>
         <ItemData ItemOID="SV.DOMAIN" Value="SV"/>
         <ItemData ItemOID="SV.USUBJID" Value="01-701-1203"/>
         <ItemData ItemOID="SV.VISITNUM" Value="8"/>
         <ItemData ItemOID="SV.VISIT" Value="WEEK 8"/>
         <ItemData ItemOID="SV.VISITDY" Value="56"/>
         <ItemData ItemOID="SV.SVSTDTC" Value="2013-03-30"/>
         <ItemData ItemOID="SV.SVENDTC" Value="2013-03-30"/>
      </ItemGroupData>
      <ItemGroupData data:ItemGroupDataSeq="269" ItemGroupOID="SV">
         <ItemData ItemOID="SV.STUDYID" Value="CDISCPILOT01"/>
         <ItemData ItemOID="SV.DOMAIN" Value="SV"/>
         <ItemData ItemOID="SV.USUBJID" Value="01-701-1203"/>
         <ItemData ItemOID="SV.VISITNUM" Value="8.1"/>
         <ItemData ItemOID="SV.VISIT" Value="WEEK 10 (T)"/>
         <ItemData ItemOID="SV.VISITDY" Value="70"/>
         <ItemData ItemOID="SV.SVSTDTC" Value="2013-04-13"/>
         <ItemData ItemOID="SV.SVENDTC" Value="2013-04-13"/>
      </ItemGroupData>
      <ItemGroupData data:ItemGroupDataSeq="270" ItemGroupOID="SV">
         <ItemData ItemOID="SV.STUDYID" Value="CDISCPILOT01"/>
         <ItemData ItemOID="SV.DOMAIN" Value="SV"/>
         <ItemData ItemOID="SV.USUBJID" Value="01-701-1203"/>
         <ItemData ItemOID="SV.VISITNUM" Value="9"/>
         <ItemData ItemOID="SV.VISIT" Value="WEEK 12"/>
         <ItemData ItemOID="SV.VISITDY" Value="84"/>
         <ItemData ItemOID="SV.SVSTDTC" Value="2013-05-09"/>
         <ItemData ItemOID="SV.SVENDTC" Value="2013-05-09"/>
      </ItemGroupData>
      <ItemGroupData data:ItemGroupDataSeq="271" ItemGroupOID="SV">
         <ItemData ItemOID="SV.STUDYID" Value="CDISCPILOT01"/>
         <ItemData ItemOID="SV.DOMAIN" Value="SV"/>
         <ItemData ItemOID="SV.USUBJID" Value="01-701-1203"/>
         <ItemData ItemOID="SV.VISITNUM" Value="9.1"/>
         <ItemData ItemOID="SV.VISIT" Value="WEEK 14 (T)"/>
         <ItemData ItemOID="SV.VISITDY" Value="98"/>
         <ItemData ItemOID="SV.SVSTDTC" Value="2013-05-11"/>
         <ItemData ItemOID="SV.SVENDTC" Value="2013-05-11"/>
      </ItemGroupData>
      <ItemGroupData data:ItemGroupDataSeq="272" ItemGroupOID="SV">
         <ItemData ItemOID="SV.STUDYID" Value="CDISCPILOT01"/>
         <ItemData ItemOID="SV.DOMAIN" Value="SV"/>
         <ItemData ItemOID="SV.USUBJID" Value="01-701-1203"/>
         <ItemData ItemOID="SV.VISITNUM" Value="10"/>
         <ItemData ItemOID="SV.VISIT" Value="WEEK 16"/>
         <ItemData ItemOID="SV.VISITDY" Value="112"/>
         <ItemData ItemOID="SV.SVSTDTC" Value="2013-05-25"/>
         <ItemData ItemOID="SV.SVENDTC" Value="2013-05-25"/>
      </ItemGroupData>
      <ItemGroupData data:ItemGroupDataSeq="273" ItemGroupOID="SV">
         <ItemData ItemOID="SV.STUDYID" Value="CDISCPILOT01"/>
         <ItemData ItemOID="SV.DOMAIN" Value="SV"/>
         <ItemData ItemOID="SV.USUBJID" Value="01-701-1203"/>
         <ItemData ItemOID="SV.VISITNUM" Value="10.1"/>
         <ItemData ItemOID="SV.VISIT" Value="WEEK 18 (T)"/>
         <ItemData ItemOID="SV.VISITDY" Value="126"/>
         <ItemData ItemOID="SV.SVSTDTC" Value="2013-06-08"/>
         <ItemData ItemOID="SV.SVENDTC" Value="2013-06-08"/>
      </ItemGroupData>
      <ItemGroupData data:ItemGroupDataSeq="274" ItemGroupOID="SV">
         <ItemData ItemOID="SV.STUDYID" Value="CDISCPILOT01"/>
         <ItemData ItemOID="SV.DOMAIN" Value="SV"/>
         <ItemData ItemOID="SV.USUBJID" Value="01-701-1203"/>
         <ItemData ItemOID="SV.VISITNUM" Value="11"/>
         <ItemData ItemOID="SV.VISIT" Value="WEEK 20"/>
         <ItemData ItemOID="SV.VISITDY" Value="140"/>
         <ItemData ItemOID="SV.SVSTDTC" Value="2013-06-22"/>
         <ItemData ItemOID="SV.SVENDTC" Value="2013-06-22"/>
      </ItemGroupData>
      <ItemGroupData data:ItemGroupDataSeq="275" ItemGroupOID="SV">
         <ItemData ItemOID="SV.STUDYID" Value="CDISCPILOT01"/>
         <ItemData ItemOID="SV.DOMAIN" Value="SV"/>
         <ItemData ItemOID="SV.USUBJID" Value="01-701-1203"/>
         <ItemData ItemOID="SV.VISITNUM" Value="11.1"/>
         <ItemData ItemOID="SV.VISIT" Value="WEEK 22 (T)"/>
         <ItemData ItemOID="SV.VISITDY" Value="154"/>
         <ItemData ItemOID="SV.SVSTDTC" Value="2013-07-07"/>
         <ItemData ItemOID="SV.SVENDTC" Value="2013-07-07"/>
      </ItemGroupData>
      <ItemGroupData data:ItemGroupDataSeq="276" ItemGroupOID="SV">
         <ItemData ItemOID="SV.STUDYID" Value="CDISCPILOT01"/>
         <ItemData ItemOID="SV.DOMAIN" Value="SV"/>
         <ItemData ItemOID="SV.USUBJID" Value="01-701-1203"/>
         <ItemData ItemOID="SV.VISITNUM" Value="12"/>
         <ItemData ItemOID="SV.VISIT" Value="WEEK 24"/>
         <ItemData ItemOID="SV.VISITDY" Value="168"/>
         <ItemData ItemOID="SV.SVSTDTC" Value="2013-07-22"/>
         <ItemData ItemOID="SV.SVENDTC" Value="2013-07-22"/>
      </ItemGroupData>
      <ItemGroupData data:ItemGroupDataSeq="277" ItemGroupOID="SV">
         <ItemData ItemOID="SV.STUDYID" Value="CDISCPILOT01"/>
         <ItemData ItemOID="SV.DOMAIN" Value="SV"/>
         <ItemData ItemOID="SV.USUBJID" Value="01-701-1203"/>
         <ItemData ItemOID="SV.VISITNUM" Value="13"/>
         <ItemData ItemOID="SV.VISIT" Value="WEEK 26"/>
         <ItemData ItemOID="SV.VISITDY" Value="182"/>
         <ItemData ItemOID="SV.SVSTDTC" Value="2013-08-03"/>
         <ItemData ItemOID="SV.SVENDTC" Value="2013-08-03"/>
      </ItemGroupData>
      <ItemGroupData data:ItemGroupDataSeq="278" ItemGroupOID="SV">
         <ItemData ItemOID="SV.STUDYID" Value="CDISCPILOT01"/>
         <ItemData ItemOID="SV.DOMAIN" Value="SV"/>
         <ItemData ItemOID="SV.USUBJID" Value="01-701-1211"/>
         <ItemData ItemOID="SV.VISITNUM" Value="1"/>
         <ItemData ItemOID="SV.VISIT" Value="SCREENING 1"/>
         <ItemData ItemOID="SV.VISITDY" Value="-7"/>
         <ItemData ItemOID="SV.SVSTDTC" Value="2012-10-30"/>
         <ItemData ItemOID="SV.SVENDTC" Value="2012-10-30"/>
      </ItemGroupData>
      <ItemGroupData data:ItemGroupDataSeq="279" ItemGroupOID="SV">
         <ItemData ItemOID="SV.STUDYID" Value="CDISCPILOT01"/>
         <ItemData ItemOID="SV.DOMAIN" Value="SV"/>
         <ItemData ItemOID="SV.USUBJID" Value="01-701-1211"/>
         <ItemData ItemOID="SV.VISITNUM" Value="2"/>
         <ItemData ItemOID="SV.VISIT" Value="SCREENING 2"/>
         <ItemData ItemOID="SV.VISITDY" Value="-1"/>
         <ItemData ItemOID="SV.SVSTDTC" Value="2012-11-14"/>
         <ItemData ItemOID="SV.SVENDTC" Value="2012-11-14"/>
      </ItemGroupData>
      <ItemGroupData data:ItemGroupDataSeq="280" ItemGroupOID="SV">
         <ItemData ItemOID="SV.STUDYID" Value="CDISCPILOT01"/>
         <ItemData ItemOID="SV.DOMAIN" Value="SV"/>
         <ItemData ItemOID="SV.USUBJID" Value="01-701-1211"/>
         <ItemData ItemOID="SV.VISITNUM" Value="3"/>
         <ItemData ItemOID="SV.VISIT" Value="BASELINE"/>
         <ItemData ItemOID="SV.VISITDY" Value="1"/>
         <ItemData ItemOID="SV.SVSTDTC" Value="2012-11-15"/>
         <ItemData ItemOID="SV.SVENDTC" Value="2012-11-15"/>
      </ItemGroupData>
      <ItemGroupData data:ItemGroupDataSeq="281" ItemGroupOID="SV">
         <ItemData ItemOID="SV.STUDYID" Value="CDISCPILOT01"/>
         <ItemData ItemOID="SV.DOMAIN" Value="SV"/>
         <ItemData ItemOID="SV.USUBJID" Value="01-701-1211"/>
         <ItemData ItemOID="SV.VISITNUM" Value="3.5"/>
         <ItemData ItemOID="SV.VISIT" Value="AMBUL ECG PLACEMENT"/>
         <ItemData ItemOID="SV.VISITDY" Value="13"/>
         <ItemData ItemOID="SV.SVSTDTC" Value="2012-11-27"/>
         <ItemData ItemOID="SV.SVENDTC" Value="2012-11-27"/>
      </ItemGroupData>
      <ItemGroupData data:ItemGroupDataSeq="282" ItemGroupOID="SV">
         <ItemData ItemOID="SV.STUDYID" Value="CDISCPILOT01"/>
         <ItemData ItemOID="SV.DOMAIN" Value="SV"/>
         <ItemData ItemOID="SV.USUBJID" Value="01-701-1211"/>
         <ItemData ItemOID="SV.VISITNUM" Value="4"/>
         <ItemData ItemOID="SV.VISIT" Value="WEEK 2"/>
         <ItemData ItemOID="SV.VISITDY" Value="14"/>
         <ItemData ItemOID="SV.SVSTDTC" Value="2012-11-28"/>
         <ItemData ItemOID="SV.SVENDTC" Value="2012-11-28"/>
      </ItemGroupData>
      <ItemGroupData data:ItemGroupDataSeq="283" ItemGroupOID="SV">
         <ItemData ItemOID="SV.STUDYID" Value="CDISCPILOT01"/>
         <ItemData ItemOID="SV.DOMAIN" Value="SV"/>
         <ItemData ItemOID="SV.USUBJID" Value="01-701-1211"/>
         <ItemData ItemOID="SV.VISITNUM" Value="5"/>
         <ItemData ItemOID="SV.VISIT" Value="WEEK 4"/>
         <ItemData ItemOID="SV.VISITDY" Value="28"/>
         <ItemData ItemOID="SV.SVSTDTC" Value="2012-12-11"/>
         <ItemData ItemOID="SV.SVENDTC" Value="2012-12-11"/>
      </ItemGroupData>
      <ItemGroupData data:ItemGroupDataSeq="284" ItemGroupOID="SV">
         <ItemData ItemOID="SV.STUDYID" Value="CDISCPILOT01"/>
         <ItemData ItemOID="SV.DOMAIN" Value="SV"/>
         <ItemData ItemOID="SV.USUBJID" Value="01-701-1211"/>
         <ItemData ItemOID="SV.VISITNUM" Value="6"/>
         <ItemData ItemOID="SV.VISIT" Value="AMBUL ECG REMOVAL"/>
         <ItemData ItemOID="SV.VISITDY" Value="30"/>
         <ItemData ItemOID="SV.SVSTDTC" Value="2012-12-13"/>
         <ItemData ItemOID="SV.SVENDTC" Value="2012-12-13"/>
      </ItemGroupData>
      <ItemGroupData data:ItemGroupDataSeq="285" ItemGroupOID="SV">
         <ItemData ItemOID="SV.STUDYID" Value="CDISCPILOT01"/>
         <ItemData ItemOID="SV.DOMAIN" Value="SV"/>
         <ItemData ItemOID="SV.USUBJID" Value="01-701-1211"/>
         <ItemData ItemOID="SV.VISITNUM" Value="7"/>
         <ItemData ItemOID="SV.VISIT" Value="WEEK 6"/>
         <ItemData ItemOID="SV.VISITDY" Value="42"/>
         <ItemData ItemOID="SV.SVSTDTC" Value="2012-12-25"/>
         <ItemData ItemOID="SV.SVENDTC" Value="2012-12-25"/>
      </ItemGroupData>
      <ItemGroupData data:ItemGroupDataSeq="286" ItemGroupOID="SV">
         <ItemData ItemOID="SV.STUDYID" Value="CDISCPILOT01"/>
         <ItemData ItemOID="SV.DOMAIN" Value="SV"/>
         <ItemData ItemOID="SV.USUBJID" Value="01-701-1211"/>
         <ItemData ItemOID="SV.VISITNUM" Value="8"/>
         <ItemData ItemOID="SV.VISIT" Value="WEEK 8"/>
         <ItemData ItemOID="SV.VISITDY" Value="56"/>
         <ItemData ItemOID="SV.SVSTDTC" Value="2013-01-08"/>
         <ItemData ItemOID="SV.SVENDTC" Value="2013-01-08"/>
      </ItemGroupData>
      <ItemGroupData data:ItemGroupDataSeq="287" ItemGroupOID="SV">
         <ItemData ItemOID="SV.STUDYID" Value="CDISCPILOT01"/>
         <ItemData ItemOID="SV.DOMAIN" Value="SV"/>
         <ItemData ItemOID="SV.USUBJID" Value="01-701-1211"/>
         <ItemData ItemOID="SV.VISITNUM" Value="9"/>
         <ItemData ItemOID="SV.VISIT" Value="WEEK 12"/>
         <ItemData ItemOID="SV.VISITDY" Value="84"/>
         <ItemData ItemOID="SV.SVSTDTC" Value="2013-01-14"/>
         <ItemData ItemOID="SV.SVENDTC" Value="2013-01-14"/>
      </ItemGroupData>
      <ItemGroupData data:ItemGroupDataSeq="288" ItemGroupOID="SV">
         <ItemData ItemOID="SV.STUDYID" Value="CDISCPILOT01"/>
         <ItemData ItemOID="SV.DOMAIN" Value="SV"/>
         <ItemData ItemOID="SV.USUBJID" Value="01-701-1234"/>
         <ItemData ItemOID="SV.VISITNUM" Value="1"/>
         <ItemData ItemOID="SV.VISIT" Value="SCREENING 1"/>
         <ItemData ItemOID="SV.VISITDY" Value="-7"/>
         <ItemData ItemOID="SV.SVSTDTC" Value="2013-03-20"/>
         <ItemData ItemOID="SV.SVENDTC" Value="2013-03-20"/>
      </ItemGroupData>
      <ItemGroupData data:ItemGroupDataSeq="289" ItemGroupOID="SV">
         <ItemData ItemOID="SV.STUDYID" Value="CDISCPILOT01"/>
         <ItemData ItemOID="SV.DOMAIN" Value="SV"/>
         <ItemData ItemOID="SV.USUBJID" Value="01-701-1234"/>
         <ItemData ItemOID="SV.VISITNUM" Value="2"/>
         <ItemData ItemOID="SV.VISIT" Value="SCREENING 2"/>
         <ItemData ItemOID="SV.VISITDY" Value="-1"/>
         <ItemData ItemOID="SV.SVSTDTC" Value="2013-03-28"/>
         <ItemData ItemOID="SV.SVENDTC" Value="2013-03-28"/>
      </ItemGroupData>
      <ItemGroupData data:ItemGroupDataSeq="290" ItemGroupOID="SV">
         <ItemData ItemOID="SV.STUDYID" Value="CDISCPILOT01"/>
         <ItemData ItemOID="SV.DOMAIN" Value="SV"/>
         <ItemData ItemOID="SV.USUBJID" Value="01-701-1234"/>
         <ItemData ItemOID="SV.VISITNUM" Value="3"/>
         <ItemData ItemOID="SV.VISIT" Value="BASELINE"/>
         <ItemData ItemOID="SV.VISITDY" Value="1"/>
         <ItemData ItemOID="SV.SVSTDTC" Value="2013-03-30"/>
         <ItemData ItemOID="SV.SVENDTC" Value="2013-03-30"/>
      </ItemGroupData>
      <ItemGroupData data:ItemGroupDataSeq="291" ItemGroupOID="SV">
         <ItemData ItemOID="SV.STUDYID" Value="CDISCPILOT01"/>
         <ItemData ItemOID="SV.DOMAIN" Value="SV"/>
         <ItemData ItemOID="SV.USUBJID" Value="01-701-1234"/>
         <ItemData ItemOID="SV.VISITNUM" Value="3.5"/>
         <ItemData ItemOID="SV.VISIT" Value="AMBUL ECG PLACEMENT"/>
         <ItemData ItemOID="SV.VISITDY" Value="13"/>
         <ItemData ItemOID="SV.SVSTDTC" Value="2013-04-20"/>
         <ItemData ItemOID="SV.SVENDTC" Value="2013-04-20"/>
      </ItemGroupData>
      <ItemGroupData data:ItemGroupDataSeq="292" ItemGroupOID="SV">
         <ItemData ItemOID="SV.STUDYID" Value="CDISCPILOT01"/>
         <ItemData ItemOID="SV.DOMAIN" Value="SV"/>
         <ItemData ItemOID="SV.USUBJID" Value="01-701-1234"/>
         <ItemData ItemOID="SV.VISITNUM" Value="4"/>
         <ItemData ItemOID="SV.VISIT" Value="WEEK 2"/>
         <ItemData ItemOID="SV.VISITDY" Value="14"/>
         <ItemData ItemOID="SV.SVSTDTC" Value="2013-04-21"/>
         <ItemData ItemOID="SV.SVENDTC" Value="2013-04-21"/>
      </ItemGroupData>
      <ItemGroupData data:ItemGroupDataSeq="293" ItemGroupOID="SV">
         <ItemData ItemOID="SV.STUDYID" Value="CDISCPILOT01"/>
         <ItemData ItemOID="SV.DOMAIN" Value="SV"/>
         <ItemData ItemOID="SV.USUBJID" Value="01-701-1234"/>
         <ItemData ItemOID="SV.VISITNUM" Value="5"/>
         <ItemData ItemOID="SV.VISIT" Value="WEEK 4"/>
         <ItemData ItemOID="SV.VISITDY" Value="28"/>
         <ItemData ItemOID="SV.SVSTDTC" Value="2013-04-28"/>
         <ItemData ItemOID="SV.SVENDTC" Value="2013-04-28"/>
      </ItemGroupData>
      <ItemGroupData data:ItemGroupDataSeq="294" ItemGroupOID="SV">
         <ItemData ItemOID="SV.STUDYID" Value="CDISCPILOT01"/>
         <ItemData ItemOID="SV.DOMAIN" Value="SV"/>
         <ItemData ItemOID="SV.USUBJID" Value="01-701-1234"/>
         <ItemData ItemOID="SV.VISITNUM" Value="6"/>
         <ItemData ItemOID="SV.VISIT" Value="AMBUL ECG REMOVAL"/>
         <ItemData ItemOID="SV.VISITDY" Value="30"/>
         <ItemData ItemOID="SV.SVSTDTC" Value="2013-04-30"/>
         <ItemData ItemOID="SV.SVENDTC" Value="2013-04-30"/>
      </ItemGroupData>
      <ItemGroupData data:ItemGroupDataSeq="295" ItemGroupOID="SV">
         <ItemData ItemOID="SV.STUDYID" Value="CDISCPILOT01"/>
         <ItemData ItemOID="SV.DOMAIN" Value="SV"/>
         <ItemData ItemOID="SV.USUBJID" Value="01-701-1234"/>
         <ItemData ItemOID="SV.VISITNUM" Value="7"/>
         <ItemData ItemOID="SV.VISIT" Value="WEEK 6"/>
         <ItemData ItemOID="SV.VISITDY" Value="42"/>
         <ItemData ItemOID="SV.SVSTDTC" Value="2013-05-08"/>
         <ItemData ItemOID="SV.SVENDTC" Value="2013-05-08"/>
      </ItemGroupData>
      <ItemGroupData data:ItemGroupDataSeq="296" ItemGroupOID="SV">
         <ItemData ItemOID="SV.STUDYID" Value="CDISCPILOT01"/>
         <ItemData ItemOID="SV.DOMAIN" Value="SV"/>
         <ItemData ItemOID="SV.USUBJID" Value="01-701-1234"/>
         <ItemData ItemOID="SV.VISITNUM" Value="8"/>
         <ItemData ItemOID="SV.VISIT" Value="WEEK 8"/>
         <ItemData ItemOID="SV.VISITDY" Value="56"/>
         <ItemData ItemOID="SV.SVSTDTC" Value="2013-05-26"/>
         <ItemData ItemOID="SV.SVENDTC" Value="2013-05-26"/>
      </ItemGroupData>
      <ItemGroupData data:ItemGroupDataSeq="297" ItemGroupOID="SV">
         <ItemData ItemOID="SV.STUDYID" Value="CDISCPILOT01"/>
         <ItemData ItemOID="SV.DOMAIN" Value="SV"/>
         <ItemData ItemOID="SV.USUBJID" Value="01-701-1234"/>
         <ItemData ItemOID="SV.VISITNUM" Value="8.1"/>
         <ItemData ItemOID="SV.VISIT" Value="WEEK 10 (T)"/>
         <ItemData ItemOID="SV.VISITDY" Value="70"/>
         <ItemData ItemOID="SV.SVSTDTC" Value="2013-06-09"/>
         <ItemData ItemOID="SV.SVENDTC" Value="2013-06-09"/>
      </ItemGroupData>
      <ItemGroupData data:ItemGroupDataSeq="298" ItemGroupOID="SV">
         <ItemData ItemOID="SV.STUDYID" Value="CDISCPILOT01"/>
         <ItemData ItemOID="SV.DOMAIN" Value="SV"/>
         <ItemData ItemOID="SV.USUBJID" Value="01-701-1234"/>
         <ItemData ItemOID="SV.VISITNUM" Value="9"/>
         <ItemData ItemOID="SV.VISIT" Value="WEEK 12"/>
         <ItemData ItemOID="SV.VISITDY" Value="84"/>
         <ItemData ItemOID="SV.SVSTDTC" Value="2013-07-07"/>
         <ItemData ItemOID="SV.SVENDTC" Value="2013-07-07"/>
      </ItemGroupData>
      <ItemGroupData data:ItemGroupDataSeq="299" ItemGroupOID="SV">
         <ItemData ItemOID="SV.STUDYID" Value="CDISCPILOT01"/>
         <ItemData ItemOID="SV.DOMAIN" Value="SV"/>
         <ItemData ItemOID="SV.USUBJID" Value="01-701-1234"/>
         <ItemData ItemOID="SV.VISITNUM" Value="10"/>
         <ItemData ItemOID="SV.VISIT" Value="WEEK 16"/>
         <ItemData ItemOID="SV.VISITDY" Value="112"/>
         <ItemData ItemOID="SV.SVSTDTC" Value="2013-07-27"/>
         <ItemData ItemOID="SV.SVENDTC" Value="2013-07-27"/>
      </ItemGroupData>
      <ItemGroupData data:ItemGroupDataSeq="300" ItemGroupOID="SV">
         <ItemData ItemOID="SV.STUDYID" Value="CDISCPILOT01"/>
         <ItemData ItemOID="SV.DOMAIN" Value="SV"/>
         <ItemData ItemOID="SV.USUBJID" Value="01-701-1234"/>
         <ItemData ItemOID="SV.VISITNUM" Value="10.1"/>
         <ItemData ItemOID="SV.VISIT" Value="WEEK 18 (T)"/>
         <ItemData ItemOID="SV.VISITDY" Value="126"/>
         <ItemData ItemOID="SV.SVSTDTC" Value="2013-08-10"/>
         <ItemData ItemOID="SV.SVENDTC" Value="2013-08-10"/>
      </ItemGroupData>
      <ItemGroupData data:ItemGroupDataSeq="301" ItemGroupOID="SV">
         <ItemData ItemOID="SV.STUDYID" Value="CDISCPILOT01"/>
         <ItemData ItemOID="SV.DOMAIN" Value="SV"/>
         <ItemData ItemOID="SV.USUBJID" Value="01-701-1234"/>
         <ItemData ItemOID="SV.VISITNUM" Value="11"/>
         <ItemData ItemOID="SV.VISIT" Value="WEEK 20"/>
         <ItemData ItemOID="SV.VISITDY" Value="140"/>
         <ItemData ItemOID="SV.SVSTDTC" Value="2013-08-18"/>
         <ItemData ItemOID="SV.SVENDTC" Value="2013-08-18"/>
      </ItemGroupData>
      <ItemGroupData data:ItemGroupDataSeq="302" ItemGroupOID="SV">
         <ItemData ItemOID="SV.STUDYID" Value="CDISCPILOT01"/>
         <ItemData ItemOID="SV.DOMAIN" Value="SV"/>
         <ItemData ItemOID="SV.USUBJID" Value="01-701-1234"/>
         <ItemData ItemOID="SV.VISITNUM" Value="11.1"/>
         <ItemData ItemOID="SV.VISIT" Value="WEEK 22 (T)"/>
         <ItemData ItemOID="SV.VISITDY" Value="154"/>
         <ItemData ItemOID="SV.SVSTDTC" Value="2013-09-01"/>
         <ItemData ItemOID="SV.SVENDTC" Value="2013-09-01"/>
      </ItemGroupData>
      <ItemGroupData data:ItemGroupDataSeq="303" ItemGroupOID="SV">
         <ItemData ItemOID="SV.STUDYID" Value="CDISCPILOT01"/>
         <ItemData ItemOID="SV.DOMAIN" Value="SV"/>
         <ItemData ItemOID="SV.USUBJID" Value="01-701-1234"/>
         <ItemData ItemOID="SV.VISITNUM" Value="12"/>
         <ItemData ItemOID="SV.VISIT" Value="WEEK 24"/>
         <ItemData ItemOID="SV.VISITDY" Value="168"/>
         <ItemData ItemOID="SV.SVSTDTC" Value="2013-09-10"/>
         <ItemData ItemOID="SV.SVENDTC" Value="2013-09-10"/>
      </ItemGroupData>
      <ItemGroupData data:ItemGroupDataSeq="304" ItemGroupOID="SV">
         <ItemData ItemOID="SV.STUDYID" Value="CDISCPILOT01"/>
         <ItemData ItemOID="SV.DOMAIN" Value="SV"/>
         <ItemData ItemOID="SV.USUBJID" Value="01-701-1234"/>
         <ItemData ItemOID="SV.VISITNUM" Value="13"/>
         <ItemData ItemOID="SV.VISIT" Value="WEEK 26"/>
         <ItemData ItemOID="SV.VISITDY" Value="182"/>
         <ItemData ItemOID="SV.SVSTDTC" Value="2013-09-22"/>
         <ItemData ItemOID="SV.SVENDTC" Value="2013-09-22"/>
      </ItemGroupData>
      <ItemGroupData data:ItemGroupDataSeq="305" ItemGroupOID="SV">
         <ItemData ItemOID="SV.STUDYID" Value="CDISCPILOT01"/>
         <ItemData ItemOID="SV.DOMAIN" Value="SV"/>
         <ItemData ItemOID="SV.USUBJID" Value="01-701-1239"/>
         <ItemData ItemOID="SV.VISITNUM" Value="1"/>
         <ItemData ItemOID="SV.VISIT" Value="SCREENING 1"/>
         <ItemData ItemOID="SV.VISITDY" Value="-7"/>
         <ItemData ItemOID="SV.SVSTDTC" Value="2013-12-28"/>
         <ItemData ItemOID="SV.SVENDTC" Value="2013-12-28"/>
      </ItemGroupData>
      <ItemGroupData data:ItemGroupDataSeq="306" ItemGroupOID="SV">
         <ItemData ItemOID="SV.STUDYID" Value="CDISCPILOT01"/>
         <ItemData ItemOID="SV.DOMAIN" Value="SV"/>
         <ItemData ItemOID="SV.USUBJID" Value="01-701-1239"/>
         <ItemData ItemOID="SV.VISITNUM" Value="1.1"/>
         <ItemData ItemOID="SV.VISIT" Value="UNSCHEDULED 1.1"/>
         <ItemData ItemOID="SV.SVSTDTC" Value="2014-01-06"/>
         <ItemData ItemOID="SV.SVENDTC" Value="2014-01-06"/>
      </ItemGroupData>
      <ItemGroupData data:ItemGroupDataSeq="307" ItemGroupOID="SV">
         <ItemData ItemOID="SV.STUDYID" Value="CDISCPILOT01"/>
         <ItemData ItemOID="SV.DOMAIN" Value="SV"/>
         <ItemData ItemOID="SV.USUBJID" Value="01-701-1239"/>
         <ItemData ItemOID="SV.VISITNUM" Value="2"/>
         <ItemData ItemOID="SV.VISIT" Value="SCREENING 2"/>
         <ItemData ItemOID="SV.VISITDY" Value="-1"/>
         <ItemData ItemOID="SV.SVSTDTC" Value="2014-01-09"/>
         <ItemData ItemOID="SV.SVENDTC" Value="2014-01-09"/>
      </ItemGroupData>
      <ItemGroupData data:ItemGroupDataSeq="308" ItemGroupOID="SV">
         <ItemData ItemOID="SV.STUDYID" Value="CDISCPILOT01"/>
         <ItemData ItemOID="SV.DOMAIN" Value="SV"/>
         <ItemData ItemOID="SV.USUBJID" Value="01-701-1239"/>
         <ItemData ItemOID="SV.VISITNUM" Value="3"/>
         <ItemData ItemOID="SV.VISIT" Value="BASELINE"/>
         <ItemData ItemOID="SV.VISITDY" Value="1"/>
         <ItemData ItemOID="SV.SVSTDTC" Value="2014-01-11"/>
         <ItemData ItemOID="SV.SVENDTC" Value="2014-01-11"/>
      </ItemGroupData>
      <ItemGroupData data:ItemGroupDataSeq="309" ItemGroupOID="SV">
         <ItemData ItemOID="SV.STUDYID" Value="CDISCPILOT01"/>
         <ItemData ItemOID="SV.DOMAIN" Value="SV"/>
         <ItemData ItemOID="SV.USUBJID" Value="01-701-1239"/>
         <ItemData ItemOID="SV.VISITNUM" Value="3.5"/>
         <ItemData ItemOID="SV.VISIT" Value="AMBUL ECG PLACEMENT"/>
         <ItemData ItemOID="SV.VISITDY" Value="13"/>
         <ItemData ItemOID="SV.SVSTDTC" Value="2014-01-24"/>
         <ItemData ItemOID="SV.SVENDTC" Value="2014-01-24"/>
      </ItemGroupData>
      <ItemGroupData data:ItemGroupDataSeq="310" ItemGroupOID="SV">
         <ItemData ItemOID="SV.STUDYID" Value="CDISCPILOT01"/>
         <ItemData ItemOID="SV.DOMAIN" Value="SV"/>
         <ItemData ItemOID="SV.USUBJID" Value="01-701-1239"/>
         <ItemData ItemOID="SV.VISITNUM" Value="4"/>
         <ItemData ItemOID="SV.VISIT" Value="WEEK 2"/>
         <ItemData ItemOID="SV.VISITDY" Value="14"/>
         <ItemData ItemOID="SV.SVSTDTC" Value="2014-01-25"/>
         <ItemData ItemOID="SV.SVENDTC" Value="2014-01-25"/>
      </ItemGroupData>
      <ItemGroupData data:ItemGroupDataSeq="311" ItemGroupOID="SV">
         <ItemData ItemOID="SV.STUDYID" Value="CDISCPILOT01"/>
         <ItemData ItemOID="SV.DOMAIN" Value="SV"/>
         <ItemData ItemOID="SV.USUBJID" Value="01-701-1239"/>
         <ItemData ItemOID="SV.VISITNUM" Value="5"/>
         <ItemData ItemOID="SV.VISIT" Value="WEEK 4"/>
         <ItemData ItemOID="SV.VISITDY" Value="28"/>
         <ItemData ItemOID="SV.SVSTDTC" Value="2014-02-08"/>
         <ItemData ItemOID="SV.SVENDTC" Value="2014-02-08"/>
      </ItemGroupData>
      <ItemGroupData data:ItemGroupDataSeq="312" ItemGroupOID="SV">
         <ItemData ItemOID="SV.STUDYID" Value="CDISCPILOT01"/>
         <ItemData ItemOID="SV.DOMAIN" Value="SV"/>
         <ItemData ItemOID="SV.USUBJID" Value="01-701-1239"/>
         <ItemData ItemOID="SV.VISITNUM" Value="6"/>
         <ItemData ItemOID="SV.VISIT" Value="AMBUL ECG REMOVAL"/>
         <ItemData ItemOID="SV.VISITDY" Value="30"/>
         <ItemData ItemOID="SV.SVSTDTC" Value="2014-02-10"/>
         <ItemData ItemOID="SV.SVENDTC" Value="2014-02-10"/>
      </ItemGroupData>
      <ItemGroupData data:ItemGroupDataSeq="313" ItemGroupOID="SV">
         <ItemData ItemOID="SV.STUDYID" Value="CDISCPILOT01"/>
         <ItemData ItemOID="SV.DOMAIN" Value="SV"/>
         <ItemData ItemOID="SV.USUBJID" Value="01-701-1239"/>
         <ItemData ItemOID="SV.VISITNUM" Value="7"/>
         <ItemData ItemOID="SV.VISIT" Value="WEEK 6"/>
         <ItemData ItemOID="SV.VISITDY" Value="42"/>
         <ItemData ItemOID="SV.SVSTDTC" Value="2014-02-19"/>
         <ItemData ItemOID="SV.SVENDTC" Value="2014-02-19"/>
      </ItemGroupData>
      <ItemGroupData data:ItemGroupDataSeq="314" ItemGroupOID="SV">
         <ItemData ItemOID="SV.STUDYID" Value="CDISCPILOT01"/>
         <ItemData ItemOID="SV.DOMAIN" Value="SV"/>
         <ItemData ItemOID="SV.USUBJID" Value="01-701-1239"/>
         <ItemData ItemOID="SV.VISITNUM" Value="8"/>
         <ItemData ItemOID="SV.VISIT" Value="WEEK 8"/>
         <ItemData ItemOID="SV.VISITDY" Value="56"/>
         <ItemData ItemOID="SV.SVSTDTC" Value="2014-03-06"/>
         <ItemData ItemOID="SV.SVENDTC" Value="2014-03-06"/>
      </ItemGroupData>
      <ItemGroupData data:ItemGroupDataSeq="315" ItemGroupOID="SV">
         <ItemData ItemOID="SV.STUDYID" Value="CDISCPILOT01"/>
         <ItemData ItemOID="SV.DOMAIN" Value="SV"/>
         <ItemData ItemOID="SV.USUBJID" Value="01-701-1239"/>
         <ItemData ItemOID="SV.VISITNUM" Value="8.1"/>
         <ItemData ItemOID="SV.VISIT" Value="WEEK 10 (T)"/>
         <ItemData ItemOID="SV.VISITDY" Value="70"/>
         <ItemData ItemOID="SV.SVSTDTC" Value="2014-03-19"/>
         <ItemData ItemOID="SV.SVENDTC" Value="2014-03-19"/>
      </ItemGroupData>
      <ItemGroupData data:ItemGroupDataSeq="316" ItemGroupOID="SV">
         <ItemData ItemOID="SV.STUDYID" Value="CDISCPILOT01"/>
         <ItemData ItemOID="SV.DOMAIN" Value="SV"/>
         <ItemData ItemOID="SV.USUBJID" Value="01-701-1239"/>
         <ItemData ItemOID="SV.VISITNUM" Value="9"/>
         <ItemData ItemOID="SV.VISIT" Value="WEEK 12"/>
         <ItemData ItemOID="SV.VISITDY" Value="84"/>
         <ItemData ItemOID="SV.SVSTDTC" Value="2014-04-02"/>
         <ItemData ItemOID="SV.SVENDTC" Value="2014-04-02"/>
      </ItemGroupData>
      <ItemGroupData data:ItemGroupDataSeq="317" ItemGroupOID="SV">
         <ItemData ItemOID="SV.STUDYID" Value="CDISCPILOT01"/>
         <ItemData ItemOID="SV.DOMAIN" Value="SV"/>
         <ItemData ItemOID="SV.USUBJID" Value="01-701-1239"/>
         <ItemData ItemOID="SV.VISITNUM" Value="9.1"/>
         <ItemData ItemOID="SV.VISIT" Value="WEEK 14 (T)"/>
         <ItemData ItemOID="SV.VISITDY" Value="98"/>
         <ItemData ItemOID="SV.SVSTDTC" Value="2014-04-16"/>
         <ItemData ItemOID="SV.SVENDTC" Value="2014-04-16"/>
      </ItemGroupData>
      <ItemGroupData data:ItemGroupDataSeq="318" ItemGroupOID="SV">
         <ItemData ItemOID="SV.STUDYID" Value="CDISCPILOT01"/>
         <ItemData ItemOID="SV.DOMAIN" Value="SV"/>
         <ItemData ItemOID="SV.USUBJID" Value="01-701-1239"/>
         <ItemData ItemOID="SV.VISITNUM" Value="10"/>
         <ItemData ItemOID="SV.VISIT" Value="WEEK 16"/>
         <ItemData ItemOID="SV.VISITDY" Value="112"/>
         <ItemData ItemOID="SV.SVSTDTC" Value="2014-05-02"/>
         <ItemData ItemOID="SV.SVENDTC" Value="2014-05-02"/>
      </ItemGroupData>
      <ItemGroupData data:ItemGroupDataSeq="319" ItemGroupOID="SV">
         <ItemData ItemOID="SV.STUDYID" Value="CDISCPILOT01"/>
         <ItemData ItemOID="SV.DOMAIN" Value="SV"/>
         <ItemData ItemOID="SV.USUBJID" Value="01-701-1239"/>
         <ItemData ItemOID="SV.VISITNUM" Value="10.1"/>
         <ItemData ItemOID="SV.VISIT" Value="WEEK 18 (T)"/>
         <ItemData ItemOID="SV.VISITDY" Value="126"/>
         <ItemData ItemOID="SV.SVSTDTC" Value="2014-05-14"/>
         <ItemData ItemOID="SV.SVENDTC" Value="2014-05-14"/>
      </ItemGroupData>
      <ItemGroupData data:ItemGroupDataSeq="320" ItemGroupOID="SV">
         <ItemData ItemOID="SV.STUDYID" Value="CDISCPILOT01"/>
         <ItemData ItemOID="SV.DOMAIN" Value="SV"/>
         <ItemData ItemOID="SV.USUBJID" Value="01-701-1239"/>
         <ItemData ItemOID="SV.VISITNUM" Value="11"/>
         <ItemData ItemOID="SV.VISIT" Value="WEEK 20"/>
         <ItemData ItemOID="SV.VISITDY" Value="140"/>
         <ItemData ItemOID="SV.SVSTDTC" Value="2014-05-28"/>
         <ItemData ItemOID="SV.SVENDTC" Value="2014-05-28"/>
      </ItemGroupData>
      <ItemGroupData data:ItemGroupDataSeq="321" ItemGroupOID="SV">
         <ItemData ItemOID="SV.STUDYID" Value="CDISCPILOT01"/>
         <ItemData ItemOID="SV.DOMAIN" Value="SV"/>
         <ItemData ItemOID="SV.USUBJID" Value="01-701-1239"/>
         <ItemData ItemOID="SV.VISITNUM" Value="11.1"/>
         <ItemData ItemOID="SV.VISIT" Value="WEEK 22 (T)"/>
         <ItemData ItemOID="SV.VISITDY" Value="154"/>
         <ItemData ItemOID="SV.SVSTDTC" Value="2014-06-11"/>
         <ItemData ItemOID="SV.SVENDTC" Value="2014-06-11"/>
      </ItemGroupData>
      <ItemGroupData data:ItemGroupDataSeq="322" ItemGroupOID="SV">
         <ItemData ItemOID="SV.STUDYID" Value="CDISCPILOT01"/>
         <ItemData ItemOID="SV.DOMAIN" Value="SV"/>
         <ItemData ItemOID="SV.USUBJID" Value="01-701-1239"/>
         <ItemData ItemOID="SV.VISITNUM" Value="12"/>
         <ItemData ItemOID="SV.VISIT" Value="WEEK 24"/>
         <ItemData ItemOID="SV.VISITDY" Value="168"/>
         <ItemData ItemOID="SV.SVSTDTC" Value="2014-06-27"/>
         <ItemData ItemOID="SV.SVENDTC" Value="2014-06-27"/>
      </ItemGroupData>
      <ItemGroupData data:ItemGroupDataSeq="323" ItemGroupOID="SV">
         <ItemData ItemOID="SV.STUDYID" Value="CDISCPILOT01"/>
         <ItemData ItemOID="SV.DOMAIN" Value="SV"/>
         <ItemData ItemOID="SV.USUBJID" Value="01-701-1239"/>
         <ItemData ItemOID="SV.VISITNUM" Value="13"/>
         <ItemData ItemOID="SV.VISIT" Value="WEEK 26"/>
         <ItemData ItemOID="SV.VISITDY" Value="182"/>
         <ItemData ItemOID="SV.SVSTDTC" Value="2014-07-11"/>
         <ItemData ItemOID="SV.SVENDTC" Value="2014-07-11"/>
      </ItemGroupData>
      <ItemGroupData data:ItemGroupDataSeq="324" ItemGroupOID="SV">
         <ItemData ItemOID="SV.STUDYID" Value="CDISCPILOT01"/>
         <ItemData ItemOID="SV.DOMAIN" Value="SV"/>
         <ItemData ItemOID="SV.USUBJID" Value="01-701-1240"/>
         <ItemData ItemOID="SV.VISITNUM" Value="1"/>
         <ItemData ItemOID="SV.VISIT" Value="SCREENING 1"/>
         <ItemData ItemOID="SV.VISITDY" Value="-7"/>
         <ItemData ItemOID="SV.SVSTDTC" Value="2013-09-22"/>
         <ItemData ItemOID="SV.SVENDTC" Value="2013-09-22"/>
      </ItemGroupData>
      <ItemGroupData data:ItemGroupDataSeq="325" ItemGroupOID="SV">
         <ItemData ItemOID="SV.STUDYID" Value="CDISCPILOT01"/>
         <ItemData ItemOID="SV.DOMAIN" Value="SV"/>
         <ItemData ItemOID="SV.USUBJID" Value="01-701-1275"/>
         <ItemData ItemOID="SV.VISITNUM" Value="1"/>
         <ItemData ItemOID="SV.VISIT" Value="SCREENING 1"/>
         <ItemData ItemOID="SV.VISITDY" Value="-7"/>
         <ItemData ItemOID="SV.SVSTDTC" Value="2014-01-25"/>
         <ItemData ItemOID="SV.SVENDTC" Value="2014-01-25"/>
      </ItemGroupData>
      <ItemGroupData data:ItemGroupDataSeq="326" ItemGroupOID="SV">
         <ItemData ItemOID="SV.STUDYID" Value="CDISCPILOT01"/>
         <ItemData ItemOID="SV.DOMAIN" Value="SV"/>
         <ItemData ItemOID="SV.USUBJID" Value="01-701-1275"/>
         <ItemData ItemOID="SV.VISITNUM" Value="2"/>
         <ItemData ItemOID="SV.VISIT" Value="SCREENING 2"/>
         <ItemData ItemOID="SV.VISITDY" Value="-1"/>
         <ItemData ItemOID="SV.SVSTDTC" Value="2014-02-05"/>
         <ItemData ItemOID="SV.SVENDTC" Value="2014-02-05"/>
      </ItemGroupData>
      <ItemGroupData data:ItemGroupDataSeq="327" ItemGroupOID="SV">
         <ItemData ItemOID="SV.STUDYID" Value="CDISCPILOT01"/>
         <ItemData ItemOID="SV.DOMAIN" Value="SV"/>
         <ItemData ItemOID="SV.USUBJID" Value="01-701-1275"/>
         <ItemData ItemOID="SV.VISITNUM" Value="3"/>
         <ItemData ItemOID="SV.VISIT" Value="BASELINE"/>
         <ItemData ItemOID="SV.VISITDY" Value="1"/>
         <ItemData ItemOID="SV.SVSTDTC" Value="2014-02-07"/>
         <ItemData ItemOID="SV.SVENDTC" Value="2014-02-07"/>
      </ItemGroupData>
      <ItemGroupData data:ItemGroupDataSeq="328" ItemGroupOID="SV">
         <ItemData ItemOID="SV.STUDYID" Value="CDISCPILOT01"/>
         <ItemData ItemOID="SV.DOMAIN" Value="SV"/>
         <ItemData ItemOID="SV.USUBJID" Value="01-701-1275"/>
         <ItemData ItemOID="SV.VISITNUM" Value="3.5"/>
         <ItemData ItemOID="SV.VISIT" Value="AMBUL ECG PLACEMENT"/>
         <ItemData ItemOID="SV.VISITDY" Value="13"/>
         <ItemData ItemOID="SV.SVSTDTC" Value="2014-02-21"/>
         <ItemData ItemOID="SV.SVENDTC" Value="2014-02-21"/>
      </ItemGroupData>
      <ItemGroupData data:ItemGroupDataSeq="329" ItemGroupOID="SV">
         <ItemData ItemOID="SV.STUDYID" Value="CDISCPILOT01"/>
         <ItemData ItemOID="SV.DOMAIN" Value="SV"/>
         <ItemData ItemOID="SV.USUBJID" Value="01-701-1275"/>
         <ItemData ItemOID="SV.VISITNUM" Value="4"/>
         <ItemData ItemOID="SV.VISIT" Value="WEEK 2"/>
         <ItemData ItemOID="SV.VISITDY" Value="14"/>
         <ItemData ItemOID="SV.SVSTDTC" Value="2014-02-22"/>
         <ItemData ItemOID="SV.SVENDTC" Value="2014-02-22"/>
      </ItemGroupData>
      <ItemGroupData data:ItemGroupDataSeq="330" ItemGroupOID="SV">
         <ItemData ItemOID="SV.STUDYID" Value="CDISCPILOT01"/>
         <ItemData ItemOID="SV.DOMAIN" Value="SV"/>
         <ItemData ItemOID="SV.USUBJID" Value="01-701-1275"/>
         <ItemData ItemOID="SV.VISITNUM" Value="5"/>
         <ItemData ItemOID="SV.VISIT" Value="WEEK 4"/>
         <ItemData ItemOID="SV.VISITDY" Value="28"/>
         <ItemData ItemOID="SV.SVSTDTC" Value="2014-03-07"/>
         <ItemData ItemOID="SV.SVENDTC" Value="2014-03-07"/>
      </ItemGroupData>
      <ItemGroupData data:ItemGroupDataSeq="331" ItemGroupOID="SV">
         <ItemData ItemOID="SV.STUDYID" Value="CDISCPILOT01"/>
         <ItemData ItemOID="SV.DOMAIN" Value="SV"/>
         <ItemData ItemOID="SV.USUBJID" Value="01-701-1275"/>
         <ItemData ItemOID="SV.VISITNUM" Value="6"/>
         <ItemData ItemOID="SV.VISIT" Value="AMBUL ECG REMOVAL"/>
         <ItemData ItemOID="SV.VISITDY" Value="30"/>
         <ItemData ItemOID="SV.SVSTDTC" Value="2014-03-08"/>
         <ItemData ItemOID="SV.SVENDTC" Value="2014-03-08"/>
      </ItemGroupData>
      <ItemGroupData data:ItemGroupDataSeq="332" ItemGroupOID="SV">
         <ItemData ItemOID="SV.STUDYID" Value="CDISCPILOT01"/>
         <ItemData ItemOID="SV.DOMAIN" Value="SV"/>
         <ItemData ItemOID="SV.USUBJID" Value="01-701-1275"/>
         <ItemData ItemOID="SV.VISITNUM" Value="7"/>
         <ItemData ItemOID="SV.VISIT" Value="WEEK 6"/>
         <ItemData ItemOID="SV.VISITDY" Value="42"/>
         <ItemData ItemOID="SV.SVSTDTC" Value="2014-03-22"/>
         <ItemData ItemOID="SV.SVENDTC" Value="2014-03-22"/>
      </ItemGroupData>
      <ItemGroupData data:ItemGroupDataSeq="333" ItemGroupOID="SV">
         <ItemData ItemOID="SV.STUDYID" Value="CDISCPILOT01"/>
         <ItemData ItemOID="SV.DOMAIN" Value="SV"/>
         <ItemData ItemOID="SV.USUBJID" Value="01-701-1275"/>
         <ItemData ItemOID="SV.VISITNUM" Value="8"/>
         <ItemData ItemOID="SV.VISIT" Value="WEEK 8"/>
         <ItemData ItemOID="SV.VISITDY" Value="56"/>
         <ItemData ItemOID="SV.SVSTDTC" Value="2014-04-05"/>
         <ItemData ItemOID="SV.SVENDTC" Value="2014-04-05"/>
      </ItemGroupData>
      <ItemGroupData data:ItemGroupDataSeq="334" ItemGroupOID="SV">
         <ItemData ItemOID="SV.STUDYID" Value="CDISCPILOT01"/>
         <ItemData ItemOID="SV.DOMAIN" Value="SV"/>
         <ItemData ItemOID="SV.USUBJID" Value="01-701-1275"/>
         <ItemData ItemOID="SV.VISITNUM" Value="8.1"/>
         <ItemData ItemOID="SV.VISIT" Value="WEEK 10 (T)"/>
         <ItemData ItemOID="SV.VISITDY" Value="70"/>
         <ItemData ItemOID="SV.SVSTDTC" Value="2014-04-19"/>
         <ItemData ItemOID="SV.SVENDTC" Value="2014-04-19"/>
      </ItemGroupData>
      <ItemGroupData data:ItemGroupDataSeq="335" ItemGroupOID="SV">
         <ItemData ItemOID="SV.STUDYID" Value="CDISCPILOT01"/>
         <ItemData ItemOID="SV.DOMAIN" Value="SV"/>
         <ItemData ItemOID="SV.USUBJID" Value="01-701-1275"/>
         <ItemData ItemOID="SV.VISITNUM" Value="9"/>
         <ItemData ItemOID="SV.VISIT" Value="WEEK 12"/>
         <ItemData ItemOID="SV.VISITDY" Value="84"/>
         <ItemData ItemOID="SV.SVSTDTC" Value="2014-05-03"/>
         <ItemData ItemOID="SV.SVENDTC" Value="2014-05-03"/>
      </ItemGroupData>
      <ItemGroupData data:ItemGroupDataSeq="336" ItemGroupOID="SV">
         <ItemData ItemOID="SV.STUDYID" Value="CDISCPILOT01"/>
         <ItemData ItemOID="SV.DOMAIN" Value="SV"/>
         <ItemData ItemOID="SV.USUBJID" Value="01-701-1275"/>
         <ItemData ItemOID="SV.VISITNUM" Value="9.1"/>
         <ItemData ItemOID="SV.VISIT" Value="WEEK 14 (T)"/>
         <ItemData ItemOID="SV.VISITDY" Value="98"/>
         <ItemData ItemOID="SV.SVSTDTC" Value="2014-05-17"/>
         <ItemData ItemOID="SV.SVENDTC" Value="2014-05-17"/>
      </ItemGroupData>
      <ItemGroupData data:ItemGroupDataSeq="337" ItemGroupOID="SV">
         <ItemData ItemOID="SV.STUDYID" Value="CDISCPILOT01"/>
         <ItemData ItemOID="SV.DOMAIN" Value="SV"/>
         <ItemData ItemOID="SV.USUBJID" Value="01-701-1275"/>
         <ItemData ItemOID="SV.VISITNUM" Value="10"/>
         <ItemData ItemOID="SV.VISIT" Value="WEEK 16"/>
         <ItemData ItemOID="SV.VISITDY" Value="112"/>
         <ItemData ItemOID="SV.SVSTDTC" Value="2014-06-14"/>
         <ItemData ItemOID="SV.SVENDTC" Value="2014-06-14"/>
      </ItemGroupData>
      <ItemGroupData data:ItemGroupDataSeq="338" ItemGroupOID="SV">
         <ItemData ItemOID="SV.STUDYID" Value="CDISCPILOT01"/>
         <ItemData ItemOID="SV.DOMAIN" Value="SV"/>
         <ItemData ItemOID="SV.USUBJID" Value="01-701-1287"/>
         <ItemData ItemOID="SV.VISITNUM" Value="1"/>
         <ItemData ItemOID="SV.VISIT" Value="SCREENING 1"/>
         <ItemData ItemOID="SV.VISITDY" Value="-7"/>
         <ItemData ItemOID="SV.SVSTDTC" Value="2014-01-17"/>
         <ItemData ItemOID="SV.SVENDTC" Value="2014-01-17"/>
      </ItemGroupData>
      <ItemGroupData data:ItemGroupDataSeq="339" ItemGroupOID="SV">
         <ItemData ItemOID="SV.STUDYID" Value="CDISCPILOT01"/>
         <ItemData ItemOID="SV.DOMAIN" Value="SV"/>
         <ItemData ItemOID="SV.USUBJID" Value="01-701-1287"/>
         <ItemData ItemOID="SV.VISITNUM" Value="2"/>
         <ItemData ItemOID="SV.VISIT" Value="SCREENING 2"/>
         <ItemData ItemOID="SV.VISITDY" Value="-1"/>
         <ItemData ItemOID="SV.SVSTDTC" Value="2014-01-23"/>
         <ItemData ItemOID="SV.SVENDTC" Value="2014-01-23"/>
      </ItemGroupData>
      <ItemGroupData data:ItemGroupDataSeq="340" ItemGroupOID="SV">
         <ItemData ItemOID="SV.STUDYID" Value="CDISCPILOT01"/>
         <ItemData ItemOID="SV.DOMAIN" Value="SV"/>
         <ItemData ItemOID="SV.USUBJID" Value="01-701-1287"/>
         <ItemData ItemOID="SV.VISITNUM" Value="3"/>
         <ItemData ItemOID="SV.VISIT" Value="BASELINE"/>
         <ItemData ItemOID="SV.VISITDY" Value="1"/>
         <ItemData ItemOID="SV.SVSTDTC" Value="2014-01-25"/>
         <ItemData ItemOID="SV.SVENDTC" Value="2014-01-25"/>
      </ItemGroupData>
      <ItemGroupData data:ItemGroupDataSeq="341" ItemGroupOID="SV">
         <ItemData ItemOID="SV.STUDYID" Value="CDISCPILOT01"/>
         <ItemData ItemOID="SV.DOMAIN" Value="SV"/>
         <ItemData ItemOID="SV.USUBJID" Value="01-701-1287"/>
         <ItemData ItemOID="SV.VISITNUM" Value="4"/>
         <ItemData ItemOID="SV.VISIT" Value="WEEK 2"/>
         <ItemData ItemOID="SV.VISITDY" Value="14"/>
         <ItemData ItemOID="SV.SVSTDTC" Value="2014-02-11"/>
         <ItemData ItemOID="SV.SVENDTC" Value="2014-02-11"/>
      </ItemGroupData>
      <ItemGroupData data:ItemGroupDataSeq="342" ItemGroupOID="SV">
         <ItemData ItemOID="SV.STUDYID" Value="CDISCPILOT01"/>
         <ItemData ItemOID="SV.DOMAIN" Value="SV"/>
         <ItemData ItemOID="SV.USUBJID" Value="01-701-1287"/>
         <ItemData ItemOID="SV.VISITNUM" Value="5"/>
         <ItemData ItemOID="SV.VISIT" Value="WEEK 4"/>
         <ItemData ItemOID="SV.VISITDY" Value="28"/>
         <ItemData ItemOID="SV.SVSTDTC" Value="2014-02-20"/>
         <ItemData ItemOID="SV.SVENDTC" Value="2014-02-20"/>
      </ItemGroupData>
      <ItemGroupData data:ItemGroupDataSeq="343" ItemGroupOID="SV">
         <ItemData ItemOID="SV.STUDYID" Value="CDISCPILOT01"/>
         <ItemData ItemOID="SV.DOMAIN" Value="SV"/>
         <ItemData ItemOID="SV.USUBJID" Value="01-701-1287"/>
         <ItemData ItemOID="SV.VISITNUM" Value="6"/>
         <ItemData ItemOID="SV.VISIT" Value="AMBUL ECG REMOVAL"/>
         <ItemData ItemOID="SV.VISITDY" Value="30"/>
         <ItemData ItemOID="SV.SVSTDTC" Value="2014-02-22"/>
         <ItemData ItemOID="SV.SVENDTC" Value="2014-02-22"/>
      </ItemGroupData>
      <ItemGroupData data:ItemGroupDataSeq="344" ItemGroupOID="SV">
         <ItemData ItemOID="SV.STUDYID" Value="CDISCPILOT01"/>
         <ItemData ItemOID="SV.DOMAIN" Value="SV"/>
         <ItemData ItemOID="SV.USUBJID" Value="01-701-1287"/>
         <ItemData ItemOID="SV.VISITNUM" Value="7"/>
         <ItemData ItemOID="SV.VISIT" Value="WEEK 6"/>
         <ItemData ItemOID="SV.VISITDY" Value="42"/>
         <ItemData ItemOID="SV.SVSTDTC" Value="2014-03-06"/>
         <ItemData ItemOID="SV.SVENDTC" Value="2014-03-06"/>
      </ItemGroupData>
      <ItemGroupData data:ItemGroupDataSeq="345" ItemGroupOID="SV">
         <ItemData ItemOID="SV.STUDYID" Value="CDISCPILOT01"/>
         <ItemData ItemOID="SV.DOMAIN" Value="SV"/>
         <ItemData ItemOID="SV.USUBJID" Value="01-701-1287"/>
         <ItemData ItemOID="SV.VISITNUM" Value="8"/>
         <ItemData ItemOID="SV.VISIT" Value="WEEK 8"/>
         <ItemData ItemOID="SV.VISITDY" Value="56"/>
         <ItemData ItemOID="SV.SVSTDTC" Value="2014-03-21"/>
         <ItemData ItemOID="SV.SVENDTC" Value="2014-03-21"/>
      </ItemGroupData>
      <ItemGroupData data:ItemGroupDataSeq="346" ItemGroupOID="SV">
         <ItemData ItemOID="SV.STUDYID" Value="CDISCPILOT01"/>
         <ItemData ItemOID="SV.DOMAIN" Value="SV"/>
         <ItemData ItemOID="SV.USUBJID" Value="01-701-1287"/>
         <ItemData ItemOID="SV.VISITNUM" Value="8.1"/>
         <ItemData ItemOID="SV.VISIT" Value="WEEK 10 (T)"/>
         <ItemData ItemOID="SV.VISITDY" Value="70"/>
         <ItemData ItemOID="SV.SVSTDTC" Value="2014-04-03"/>
         <ItemData ItemOID="SV.SVENDTC" Value="2014-04-03"/>
      </ItemGroupData>
      <ItemGroupData data:ItemGroupDataSeq="347" ItemGroupOID="SV">
         <ItemData ItemOID="SV.STUDYID" Value="CDISCPILOT01"/>
         <ItemData ItemOID="SV.DOMAIN" Value="SV"/>
         <ItemData ItemOID="SV.USUBJID" Value="01-701-1287"/>
         <ItemData ItemOID="SV.VISITNUM" Value="9"/>
         <ItemData ItemOID="SV.VISIT" Value="WEEK 12"/>
         <ItemData ItemOID="SV.VISITDY" Value="84"/>
         <ItemData ItemOID="SV.SVSTDTC" Value="2014-04-17"/>
         <ItemData ItemOID="SV.SVENDTC" Value="2014-04-17"/>
      </ItemGroupData>
      <ItemGroupData data:ItemGroupDataSeq="348" ItemGroupOID="SV">
         <ItemData ItemOID="SV.STUDYID" Value="CDISCPILOT01"/>
         <ItemData ItemOID="SV.DOMAIN" Value="SV"/>
         <ItemData ItemOID="SV.USUBJID" Value="01-701-1287"/>
         <ItemData ItemOID="SV.VISITNUM" Value="9.1"/>
         <ItemData ItemOID="SV.VISIT" Value="WEEK 14 (T)"/>
         <ItemData ItemOID="SV.VISITDY" Value="98"/>
         <ItemData ItemOID="SV.SVSTDTC" Value="2014-05-01"/>
         <ItemData ItemOID="SV.SVENDTC" Value="2014-05-01"/>
      </ItemGroupData>
      <ItemGroupData data:ItemGroupDataSeq="349" ItemGroupOID="SV">
         <ItemData ItemOID="SV.STUDYID" Value="CDISCPILOT01"/>
         <ItemData ItemOID="SV.DOMAIN" Value="SV"/>
         <ItemData ItemOID="SV.USUBJID" Value="01-701-1287"/>
         <ItemData ItemOID="SV.VISITNUM" Value="10"/>
         <ItemData ItemOID="SV.VISIT" Value="WEEK 16"/>
         <ItemData ItemOID="SV.VISITDY" Value="112"/>
         <ItemData ItemOID="SV.SVSTDTC" Value="2014-05-15"/>
         <ItemData ItemOID="SV.SVENDTC" Value="2014-05-15"/>
      </ItemGroupData>
      <ItemGroupData data:ItemGroupDataSeq="350" ItemGroupOID="SV">
         <ItemData ItemOID="SV.STUDYID" Value="CDISCPILOT01"/>
         <ItemData ItemOID="SV.DOMAIN" Value="SV"/>
         <ItemData ItemOID="SV.USUBJID" Value="01-701-1287"/>
         <ItemData ItemOID="SV.VISITNUM" Value="10.1"/>
         <ItemData ItemOID="SV.VISIT" Value="WEEK 18 (T)"/>
         <ItemData ItemOID="SV.VISITDY" Value="126"/>
         <ItemData ItemOID="SV.SVSTDTC" Value="2014-05-29"/>
         <ItemData ItemOID="SV.SVENDTC" Value="2014-05-29"/>
      </ItemGroupData>
      <ItemGroupData data:ItemGroupDataSeq="351" ItemGroupOID="SV">
         <ItemData ItemOID="SV.STUDYID" Value="CDISCPILOT01"/>
         <ItemData ItemOID="SV.DOMAIN" Value="SV"/>
         <ItemData ItemOID="SV.USUBJID" Value="01-701-1287"/>
         <ItemData ItemOID="SV.VISITNUM" Value="11"/>
         <ItemData ItemOID="SV.VISIT" Value="WEEK 20"/>
         <ItemData ItemOID="SV.VISITDY" Value="140"/>
         <ItemData ItemOID="SV.SVSTDTC" Value="2014-06-12"/>
         <ItemData ItemOID="SV.SVENDTC" Value="2014-06-12"/>
      </ItemGroupData>
      <ItemGroupData data:ItemGroupDataSeq="352" ItemGroupOID="SV">
         <ItemData ItemOID="SV.STUDYID" Value="CDISCPILOT01"/>
         <ItemData ItemOID="SV.DOMAIN" Value="SV"/>
         <ItemData ItemOID="SV.USUBJID" Value="01-701-1287"/>
         <ItemData ItemOID="SV.VISITNUM" Value="11.1"/>
         <ItemData ItemOID="SV.VISIT" Value="WEEK 22 (T)"/>
         <ItemData ItemOID="SV.VISITDY" Value="154"/>
         <ItemData ItemOID="SV.SVSTDTC" Value="2014-06-26"/>
         <ItemData ItemOID="SV.SVENDTC" Value="2014-06-26"/>
      </ItemGroupData>
      <ItemGroupData data:ItemGroupDataSeq="353" ItemGroupOID="SV">
         <ItemData ItemOID="SV.STUDYID" Value="CDISCPILOT01"/>
         <ItemData ItemOID="SV.DOMAIN" Value="SV"/>
         <ItemData ItemOID="SV.USUBJID" Value="01-701-1287"/>
         <ItemData ItemOID="SV.VISITNUM" Value="12"/>
         <ItemData ItemOID="SV.VISIT" Value="WEEK 24"/>
         <ItemData ItemOID="SV.VISITDY" Value="168"/>
         <ItemData ItemOID="SV.SVSTDTC" Value="2014-07-12"/>
         <ItemData ItemOID="SV.SVENDTC" Value="2014-07-12"/>
      </ItemGroupData>
      <ItemGroupData data:ItemGroupDataSeq="354" ItemGroupOID="SV">
         <ItemData ItemOID="SV.STUDYID" Value="CDISCPILOT01"/>
         <ItemData ItemOID="SV.DOMAIN" Value="SV"/>
         <ItemData ItemOID="SV.USUBJID" Value="01-701-1287"/>
         <ItemData ItemOID="SV.VISITNUM" Value="13"/>
         <ItemData ItemOID="SV.VISIT" Value="WEEK 26"/>
         <ItemData ItemOID="SV.VISITDY" Value="182"/>
         <ItemData ItemOID="SV.SVSTDTC" Value="2014-07-26"/>
         <ItemData ItemOID="SV.SVENDTC" Value="2014-07-26"/>
      </ItemGroupData>
      <ItemGroupData data:ItemGroupDataSeq="355" ItemGroupOID="SV">
         <ItemData ItemOID="SV.STUDYID" Value="CDISCPILOT01"/>
         <ItemData ItemOID="SV.DOMAIN" Value="SV"/>
         <ItemData ItemOID="SV.USUBJID" Value="01-701-1294"/>
         <ItemData ItemOID="SV.VISITNUM" Value="1"/>
         <ItemData ItemOID="SV.VISIT" Value="SCREENING 1"/>
         <ItemData ItemOID="SV.VISITDY" Value="-7"/>
         <ItemData ItemOID="SV.SVSTDTC" Value="2013-03-17"/>
         <ItemData ItemOID="SV.SVENDTC" Value="2013-03-17"/>
      </ItemGroupData>
      <ItemGroupData data:ItemGroupDataSeq="356" ItemGroupOID="SV">
         <ItemData ItemOID="SV.STUDYID" Value="CDISCPILOT01"/>
         <ItemData ItemOID="SV.DOMAIN" Value="SV"/>
         <ItemData ItemOID="SV.USUBJID" Value="01-701-1294"/>
         <ItemData ItemOID="SV.VISITNUM" Value="2"/>
         <ItemData ItemOID="SV.VISIT" Value="SCREENING 2"/>
         <ItemData ItemOID="SV.VISITDY" Value="-1"/>
         <ItemData ItemOID="SV.SVSTDTC" Value="2013-03-22"/>
         <ItemData ItemOID="SV.SVENDTC" Value="2013-03-22"/>
      </ItemGroupData>
      <ItemGroupData data:ItemGroupDataSeq="357" ItemGroupOID="SV">
         <ItemData ItemOID="SV.STUDYID" Value="CDISCPILOT01"/>
         <ItemData ItemOID="SV.DOMAIN" Value="SV"/>
         <ItemData ItemOID="SV.USUBJID" Value="01-701-1294"/>
         <ItemData ItemOID="SV.VISITNUM" Value="3"/>
         <ItemData ItemOID="SV.VISIT" Value="BASELINE"/>
         <ItemData ItemOID="SV.VISITDY" Value="1"/>
         <ItemData ItemOID="SV.SVSTDTC" Value="2013-03-24"/>
         <ItemData ItemOID="SV.SVENDTC" Value="2013-03-24"/>
      </ItemGroupData>
      <ItemGroupData data:ItemGroupDataSeq="358" ItemGroupOID="SV">
         <ItemData ItemOID="SV.STUDYID" Value="CDISCPILOT01"/>
         <ItemData ItemOID="SV.DOMAIN" Value="SV"/>
         <ItemData ItemOID="SV.USUBJID" Value="01-701-1294"/>
         <ItemData ItemOID="SV.VISITNUM" Value="3.5"/>
         <ItemData ItemOID="SV.VISIT" Value="AMBUL ECG PLACEMENT"/>
         <ItemData ItemOID="SV.VISITDY" Value="13"/>
         <ItemData ItemOID="SV.SVSTDTC" Value="2013-04-09"/>
         <ItemData ItemOID="SV.SVENDTC" Value="2013-04-09"/>
      </ItemGroupData>
      <ItemGroupData data:ItemGroupDataSeq="359" ItemGroupOID="SV">
         <ItemData ItemOID="SV.STUDYID" Value="CDISCPILOT01"/>
         <ItemData ItemOID="SV.DOMAIN" Value="SV"/>
         <ItemData ItemOID="SV.USUBJID" Value="01-701-1294"/>
         <ItemData ItemOID="SV.VISITNUM" Value="4"/>
         <ItemData ItemOID="SV.VISIT" Value="WEEK 2"/>
         <ItemData ItemOID="SV.VISITDY" Value="14"/>
         <ItemData ItemOID="SV.SVSTDTC" Value="2013-04-10"/>
         <ItemData ItemOID="SV.SVENDTC" Value="2013-04-10"/>
      </ItemGroupData>
      <ItemGroupData data:ItemGroupDataSeq="360" ItemGroupOID="SV">
         <ItemData ItemOID="SV.STUDYID" Value="CDISCPILOT01"/>
         <ItemData ItemOID="SV.DOMAIN" Value="SV"/>
         <ItemData ItemOID="SV.USUBJID" Value="01-701-1294"/>
         <ItemData ItemOID="SV.VISITNUM" Value="5"/>
         <ItemData ItemOID="SV.VISIT" Value="WEEK 4"/>
         <ItemData ItemOID="SV.VISITDY" Value="28"/>
         <ItemData ItemOID="SV.SVSTDTC" Value="2013-04-24"/>
         <ItemData ItemOID="SV.SVENDTC" Value="2013-04-24"/>
      </ItemGroupData>
      <ItemGroupData data:ItemGroupDataSeq="361" ItemGroupOID="SV">
         <ItemData ItemOID="SV.STUDYID" Value="CDISCPILOT01"/>
         <ItemData ItemOID="SV.DOMAIN" Value="SV"/>
         <ItemData ItemOID="SV.USUBJID" Value="01-701-1294"/>
         <ItemData ItemOID="SV.VISITNUM" Value="6"/>
         <ItemData ItemOID="SV.VISIT" Value="AMBUL ECG REMOVAL"/>
         <ItemData ItemOID="SV.VISITDY" Value="30"/>
         <ItemData ItemOID="SV.SVSTDTC" Value="2013-04-26"/>
